ax,ay,az,mgx,mgy,mgz,RotX,RotY,RotZ,ts
0.7315934896469116,-0.14348678290843964,-9.773856163024902,0.21049165725708008,0.09315729141235352,1.0668745040893555,-0.005035474896430969,0.005046837497502565,-0.0010933727025985718,22:26:20.919
0.7110613584518433,-0.1637357920408249,-9.76069450378418,0.21189665794372559,0.09561562538146973,1.062014102935791,0.00036824497510679066,0.0018263236852362752,-0.0014431774616241455,22:26:20.929
0.7053660750389099,-0.15627767145633698,-9.758329391479492,0.21043968200683594,0.09560203552246094,1.064441204071045,-0.0021770598832517862,0.002182088792324066,-0.0002678484015632421,22:26:20.939
0.7125150561332703,-0.15965047478675842,-9.77336311340332,0.2142348289489746,0.09804415702819824,1.0673730373382568,-0.0019807370845228434,0.0018047168850898743,-0.002189725637435913,22:26:20.949
0.7319761514663696,-0.15958859026432037,-9.786173820495605,0.20949220657348633,0.09511733055114746,1.0624918937683105,-0.00027790668536908925,0.0029241666197776794,-0.0007461757049895823,22:26:20.959
0.7163806557655334,-0.1608555167913437,-9.7852201461792,0.21136689186096191,0.09706473350524902,1.0654170513153076,-0.004624203313142061,0.0023448842111974955,-0.0008378179045394063,22:26:20.969
0.7006655335426331,-0.2028774470090866,-9.777402877807617,0.210435152053833,0.0955972671508789,1.0659005641937256,-0.002691894769668579,0.0032989310566335917,-0.0031132246367633343,22:26:20.979
0.6912594437599182,-0.21189214289188385,-9.7657470703125,0.21137118339538574,0.09656929969787598,1.0678496360778809,-0.005571544636040926,0.003952346742153168,-0.0009592623682692647,22:26:20.989
0.7094123363494873,-0.20922431349754333,-9.770658493041992,0.21047544479370117,0.09414005279541016,1.0644416809082031,-0.0024717303458601236,0.001903437077999115,-0.0012323259143158793,22:26:20.999
0.727051854133606,-0.19306224584579468,-9.782127380371094,0.21331071853637695,0.09658479690551758,1.0654242038726807,-0.0037148597184568644,0.0037556516472250223,-0.0012800097465515137,22:26:21.009
0.7555888295173645,-0.1410815566778183,-9.775729179382324,0.20708441734313965,0.09461593627929688,1.0639426708221436,-0.004683435428887606,0.0038584694266319275,-0.002073496812954545,22:26:21.019
0.794373095035553,-0.12216388434171677,-9.777803421020508,0.2123415470123291,0.09657788276672363,1.0663938522338867,-0.0037606810219585896,0.0040506948716938496,-0.001208856818266213,22:26:21.029
0.7918495535850525,-0.13007332384586334,-9.766196250915527,0.20949316024780273,0.0946187973022461,1.0658972263336182,-0.0004123896360397339,0.0008577482658438385,-0.0011738389730453491,22:26:21.039
0.7797903418540955,-0.1485026478767395,-9.763370513916016,0.21037554740905762,0.09803414344787598,1.06589937210083,-0.00390857458114624,0.003970600664615631,-0.0002805143885780126,22:26:21.049
0.7644374966621399,-0.16357910633087158,-9.785375595092773,0.20949149131774902,0.09461712837219238,1.0663838386535645,-0.0005088747129775584,0.0004863366484642029,-0.001266598585061729,22:26:21.059
0.7494751214981079,-0.15735022723674774,-9.76635456085205,0.2122955322265625,0.09852910041809082,1.065906286239624,-0.002243742346763611,0.003344752127304673,-0.0009901822777464986,22:26:21.069
0.7398177981376648,-0.14603804051876068,-9.763812065124512,0.20946931838989258,0.09559345245361328,1.065896987915039,-0.0046934946440160275,0.002687983214855194,0.0008044766145758331,22:26:21.079
0.746473491191864,-0.1430744230747223,-9.778425216674805,0.21086740493774414,0.09754538536071777,1.0668742656707764,-0.0010382384061813354,0.0021500512957572937,-0.0008478761301375926,22:26:21.089
0.7266037464141846,-0.1437283754348755,-9.773811340332031,0.20752978324890137,0.09607815742492676,1.0644304752349854,-0.003094598650932312,0.0042414297349750996,-0.001339241862297058,22:26:21.099
0.7153142094612122,-0.15370385348796844,-9.775508880615234,0.2104175090789795,0.09657859802246094,1.0639543533325195,0.002281926805153489,0.00010747462511062622,-0.0001650303602218628,22:26:21.109
0.7033265829086304,-0.15269216895103455,-9.774824142456055,0.20854663848876953,0.09413576126098633,1.0634615421295166,-0.00014230608940124512,0.0039258976466953754,-0.000994652509689331,22:26:21.119
0.7033482193946838,-0.17103038728237152,-9.75937271118164,0.21327805519104004,0.09804987907409668,1.0644505023956299,-0.0037245452404022217,0.0034535303711891174,-0.0024400653783231974,22:26:21.129
0.7248136401176453,-0.18738317489624023,-9.758674621582031,0.207564115524292,0.09461450576782227,1.0649175643920898,-0.0039014967624098063,0.00433120783418417,-0.0020124020520597696,22:26:21.139
0.7153990864753723,-0.18066668510437012,-9.743515014648438,0.21329569816589355,0.09706878662109375,1.066396951675415,-0.0025194138288497925,0.0018229706911370158,-0.0008128584013320506,22:26:21.149
0.7202115654945374,-0.185389444231987,-9.816767692565918,0.2094557285308838,0.09607911109924316,1.0663833618164062,-0.0016726553440093994,0.0009326264844276011,-0.0035315752029418945,22:26:21.159
0.7176410555839539,-0.18394167721271515,-9.786242485046387,0.21134305000305176,0.09803938865661621,1.0654165744781494,-0.0011391937732696533,0.001945160562172532,-0.0008337200270034373,22:26:21.169
0.761188268661499,-0.15479056537151337,-9.737398147583008,0.21137738227844238,0.09657573699951172,1.065903663635254,-0.0007025898084975779,0.0031096860766410828,-0.001547485706396401,22:26:21.179
0.7783060669898987,-0.13005469739437103,-9.778285026550293,0.21286654472351074,0.0951240062713623,1.0644500255584717,-0.0001762062165653333,0.0016262754797935486,-0.001953914761543274,22:26:21.189
0.7770390510559082,-0.14782866835594177,-9.78243637084961,0.20808696746826172,0.09265899658203125,1.067352533340454,-0.004556030500680208,0.004387088119983673,-0.002065673703327775,22:26:21.199
0.7747976779937744,-0.15728776156902313,-9.750138282775879,0.21042633056640625,0.09608769416809082,1.064927577972412,-0.0018689780263230205,0.0022066759411245584,-0.0014744699001312256,22:26:21.209
0.7745792269706726,-0.17512147128582,-9.761519432067871,0.2090609073638916,0.09267044067382812,1.0649237632751465,-0.00439137127250433,0.004683994222432375,-0.00044330948730930686,22:26:21.219
0.7571106553077698,-0.20026801526546478,-9.790664672851562,0.21137571334838867,0.09657406806945801,1.0663902759552002,-0.002912059659138322,0.0022744759917259216,-0.002180039416998625,22:26:21.229
0.7565106153488159,-0.1850421130657196,-9.786097526550293,0.20946049690246582,0.0960838794708252,1.0649240016937256,-0.001605600118637085,0.004613958764821291,-0.0021457672119140625,22:26:21.239
0.772716224193573,-0.1386323720216751,-9.755678176879883,0.21134471893310547,0.09804081916809082,1.0649302005767822,-0.0013444572687149048,0.002362765371799469,-0.0025786461774259806,22:26:21.249
0.7663037776947021,-0.12889575958251953,-9.761563301086426,0.2080392837524414,0.09460854530334473,1.0673515796661377,0.0030120837036520243,-0.0009521840838715434,-0.00016242267156485468,22:26:21.259
0.751071035861969,-0.13713262975215912,-9.756348609924316,0.2142798900604248,0.09659171104431152,1.0644547939300537,0.00028330832719802856,0.0017924237763509154,-0.002063438994809985,22:26:21.269
0.7073518633842468,-0.16891352832317352,-9.740943908691406,0.21092844009399414,0.09510993957519531,1.0663888454437256,0.0011397526832297444,-0.00046938657760620117,-0.0022225084248930216,22:26:21.279
0.701305627822876,-0.20135343074798584,-9.852486610412598,0.21233129501342773,0.09706687927246094,1.0659070014953613,0.0024093317333608866,-0.0023055823985487223,-0.0019762665033340454,22:26:21.289
0.6950166821479797,-0.20851819217205048,-9.866835594177246,0.2089700698852539,0.09657430648803711,1.063462495803833,-0.004137680400162935,0.0018039718270301819,-0.0016808510990813375,22:26:21.299
0.6834624409675598,-0.20553626120090485,-9.686882019042969,0.2118542194366455,0.09657120704650879,1.0678513050079346,-0.003170967334881425,0.0034028664231300354,-0.001924857497215271,22:26:21.310
0.6940666437149048,-0.20260807871818542,-9.694005966186523,0.2099297046661377,0.0965719223022461,1.0654120445251465,-0.0011313707800582051,0.0036461278796195984,-0.0022381546441465616,22:26:21.320
0.7102633714675903,-0.1768835186958313,-9.834382057189941,0.21286511421203613,0.0951223373413086,1.064936637878418,-0.0005286187515594065,0.002266280585899949,-0.0001255422830581665,22:26:21.330
0.7362294793128967,-0.1417296677827835,-9.808518409729004,0.20853900909423828,0.09412789344787598,1.0658938884735107,-0.004713982343673706,0.0021519141737371683,-0.0017277896404266357,22:26:21.340
0.7427845001220703,-0.1513511836528778,-9.730847358703613,0.21227312088012695,0.09950542449951172,1.0654196739196777,-0.0019721686840057373,0.003386847907677293,-0.0010345132322981954,22:26:21.350
0.7395196557044983,-0.16307877004146576,-9.779871940612793,0.2090163230895996,0.09462332725524902,1.0639498233795166,-0.00077858567237854,0.0032035636249929667,-0.0009253621101379395,22:26:21.360
0.762822687625885,-0.16308173537254333,-9.80698013305664,0.21283960342407227,0.09609556198120117,1.065422773361206,-0.002561882371082902,0.0027561557944864035,-0.00021420419216156006,22:26:21.370
0.7708016633987427,-0.14380617439746857,-9.770811080932617,0.20753145217895508,0.09607982635498047,1.0639441013336182,-0.001113489386625588,0.0024808570742607117,-0.001602992764674127,22:26:21.380
0.7764274477958679,-0.1389746516942978,-9.747237205505371,0.21232390403747559,0.09755897521972656,1.0644474029541016,0.0006807968020439148,0.0021623449865728617,-0.002345815533772111,22:26:21.390
0.7747132182121277,-0.13301056623458862,-9.78534984588623,0.20994782447814941,0.09609055519104004,1.0634663105010986,-0.0011678786249831319,0.0038215885870158672,-0.0025853512343019247,22:26:21.400
0.7777937650680542,-0.1405619978904724,-9.779407501220703,0.21133732795715332,0.09853315353393555,1.0634703636169434,-0.0018917025299742818,0.0032221900764852762,-0.0012032685335725546,22:26:21.410
0.7674887776374817,-0.12050799280405045,-9.777535438537598,0.20905041694641113,0.09315943717956543,1.064436912536621,-0.0010337678249925375,0.0031037258449941874,-0.0016760081052780151,22:26:21.420
0.7690025568008423,-0.1416844129562378,-9.787515640258789,0.21280241012573242,0.09755611419677734,1.065908432006836,-0.001848861575126648,0.0029643999878317118,-0.0022806229535490274,22:26:21.430
0.7635650038719177,-0.15369513630867004,-9.786516189575195,0.20709729194641113,0.09362983703613281,1.0673484802246094,-0.0011075289221480489,0.001056678593158722,-0.002380833262577653,22:26:21.440
0.7176870703697205,-0.16786426305770874,-9.76064395904541,0.21280813217163086,0.09706234931945801,1.067854642868042,0.0002307817485416308,0.0014336778549477458,-0.0015188006218522787,22:26:21.450
0.6922866106033325,-0.2043699324131012,-9.774258613586426,0.20900273323059082,0.0951089859008789,1.0644359588623047,-0.00263862288556993,0.0030180434696376324,-0.0027138737495988607,22:26:21.460
0.6833963394165039,-0.22097933292388916,-9.77739143371582,0.21326923370361328,0.0985405445098877,1.0634772777557373,-0.0019807370845228434,0.002485327422618866,-0.000286102294921875,22:26:21.470
0.6852777004241943,-0.21590259671211243,-9.773075103759766,0.20997023582458496,0.09511446952819824,1.063953161239624,-0.00018514694238547236,0.0017909333109855652,-0.0004481524520087987,22:26:21.480
0.7081586122512817,-0.19786684215068817,-9.788300514221191,0.21466732025146484,0.10049247741699219,1.0644550323486328,-0.0006645917310379446,-0.00011362136137904599,-0.0004556030035018921,22:26:21.490
0.7232639193534851,-0.16777841746807098,-9.772595405578613,0.21088957786560059,0.09656906127929688,1.0673613548278809,-0.000561028893571347,0.001493282848969102,-0.00021085147454869002,22:26:21.500
0.7417808175086975,-0.1586347371339798,-9.776832580566406,0.2142648696899414,0.0970759391784668,1.065427541732788,0.0004550442972686142,0.0013867395464330912,-0.001584738725796342,22:26:21.510
0.731509268283844,-0.18065066635608673,-9.775374412536621,0.2084975242614746,0.0960836410522461,1.0639474391937256,-0.0016842038603499532,-0.0002544372691772878,-0.00018551947141531855,22:26:21.520
0.7431356310844421,-0.17242349684238434,-9.780266761779785,0.21181893348693848,0.09853363037109375,1.0639586448669434,-0.0007465481758117676,0.0013889744877815247,-0.002314895624294877,22:26:21.530
0.7381321787834167,-0.17099887132644653,-9.772342681884766,0.20752358436584473,0.09607172012329102,1.0663764476776123,-0.0033825638238340616,0.0023422762751579285,-0.0021751972381025553,22:26:21.540
0.7685803174972534,-0.1519141048192978,-9.781975746154785,0.21089744567871094,0.09657692909240723,1.0649290084838867,-0.0009339303360320628,0.0023057684302330017,-0.0021066516637802124,22:26:21.550
0.7854951620101929,-0.1384778469800949,-9.79059886932373,0.21041035652160645,0.09707069396972656,1.0624947547912598,0.000566430448088795,0.0007485970854759216,0.00032018873025663197,22:26:21.560
0.8033202886581421,-0.11657964438199997,-9.775503158569336,0.21471810340881348,0.09854626655578613,1.0634827613830566,-0.00423043966293335,0.0019041821360588074,-0.002818927401676774,22:26:21.570
0.804023802280426,-0.12902502715587616,-9.777061462402344,0.2090146541595459,0.09462165832519531,1.0644361972808838,-0.00338628888130188,0.00288728647865355,-0.001960247755050659,22:26:21.580
0.7833167910575867,-0.1285349726676941,-9.774826049804688,0.21326160430908203,0.09853267669677734,1.0659096240997314,-0.0019192699110135436,0.0013062730431556702,-0.0014722347259521484,22:26:21.590
0.7399054169654846,-0.143815815448761,-9.760223388671875,0.21045899391174316,0.09462261199951172,1.0659008026123047,-0.0013742594746872783,0.002033822238445282,-0.0009737909422256052,22:26:21.600
0.7397937774658203,-0.15651698410511017,-9.781001091003418,0.2142784595489502,0.09659004211425781,1.06494140625,-0.001095607876777649,0.0019745896570384502,-0.0014722348423674703,22:26:21.610
0.70904541015625,-0.1812351942062378,-9.779009819030762,0.2090282440185547,0.09413599967956543,1.0639500617980957,-0.00019222499395255,-0.0005234032869338989,-0.0022090973798185587,22:26:21.620
0.7042847871780396,-0.19345027208328247,-9.766706466674805,0.21191120147705078,0.09463119506835938,1.0649333000183105,-0.0014163554878905416,0.002460367977619171,-0.00018961724708788097,22:26:21.630
0.6936582922935486,-0.20098918676376343,-9.780640602111816,0.20899248123168945,0.09559798240661621,1.0639495849609375,-0.0021822750568389893,0.003963150549679995,-0.0015430152416229248,22:26:21.640
0.698277473449707,-0.19011159241199493,-9.777183532714844,0.21084976196289062,0.0985264778137207,1.0649280548095703,-0.002000480890274048,0.0013606622815132141,-0.0006396324024535716,22:26:21.650
0.7079014778137207,-0.18098102509975433,-9.78728199005127,0.2080216407775879,0.09558963775634766,1.0654053688049316,-0.00043064364581368864,-0.00011846423149108887,-0.0002961606078315526,22:26:21.660
0.7029746770858765,-0.18270187079906464,-9.759478569030762,0.21035313606262207,0.09901070594787598,1.0654125213623047,-0.0028006734792143106,0.0024484475143253803,-0.001575052971020341,22:26:21.670
0.6992525458335876,-0.19378873705863953,-9.781116485595703,0.20996856689453125,0.09511280059814453,1.0644395351409912,0.0015115366550162435,0.00048670917749404907,-0.00038221481372602284,22:26:21.680
0.7348293662071228,-0.18864311277866364,-9.786569595336914,0.2118380069732666,0.09755396842956543,1.0654184818267822,-0.0010818244190886617,0.0019254164071753621,-0.0009540468454360962,22:26:21.690
0.7283698916435242,-0.17095179855823517,-9.77674674987793,0.2094733715057373,0.09509825706481934,1.0683293342590332,-0.0019971283618360758,0.002187676727771759,-0.001055374857969582,22:26:21.700
0.7468844652175903,-0.1602841317653656,-9.769709587097168,0.2108767032623291,0.09755492210388184,1.063955545425415,-0.00041648754267953336,0.0006845220923423767,-0.0007640570402145386,22:26:21.710
0.7596322298049927,-0.13800007104873657,-9.774662017822266,0.20949459075927734,0.0946204662322998,1.065410852432251,-0.002562254900112748,0.0034576281905174255,-0.0018917025299742818,22:26:21.720
0.7864624261856079,-0.1285700798034668,-9.784297943115234,0.21134161949157715,0.0980377197265625,1.0659029483795166,-6.295741331996396e-05,0.003183074528351426,-0.0011246651411056519,22:26:21.730
0.7859607934951782,-0.11575143039226532,-9.756575584411621,0.20851349830627441,0.09510087966918945,1.0663800239562988,-0.0014629217330366373,0.004225410986691713,-0.0009018928976729512,22:26:21.740
0.7991529703140259,-0.10847076773643494,-9.781558990478516,0.21279358863830566,0.09804654121398926,1.0649354457855225,-9.57399679464288e-05,0.0028776004910469055,-0.002279132604598999,22:26:21.750
0.7633388042449951,-0.13011305034160614,-9.76728630065918,0.2085270881652832,0.09461522102355957,1.0658936500549316,-0.0005964189767837524,-0.0011686236830428243,-0.0006865710020065308,22:26:21.760
0.760393500328064,-0.1497785747051239,-9.756568908691406,0.21138501167297363,0.09658360481262207,1.0634713172912598,0.0008026137948036194,0.0016847625374794006,-0.001146644470281899,22:26:21.770
0.7187730669975281,-0.18051785230636597,-9.75997257232666,0.2085404396057129,0.09412956237792969,1.0654075145721436,-0.0010162591934204102,0.002182461554184556,-0.001236051321029663,22:26:21.780
0.701076090335846,-0.18621306121349335,-9.778862953186035,0.21225500106811523,0.09998631477355957,1.0673654079437256,-0.00239349901676178,0.0015819448744878173,-0.0003103167109657079,22:26:21.790
0.7071797847747803,-0.2004764974117279,-9.79260540008545,0.20851969718933105,0.0951073169708252,1.0644340515136719,-0.0008996576070785522,0.001372583326883614,-0.00155717134475708,22:26:21.800
0.7102969288825989,-0.20540538430213928,-9.773815155029297,0.21230006217956543,0.09853386878967285,1.0644469261169434,-0.00034421682357788086,0.0024842098355293274,-0.0008873643237166107,22:26:21.810
0.7189245223999023,-0.20144270360469818,-9.77759838104248,0.20899081230163574,0.0955963134765625,1.0644359588623047,0.00030901285936124623,0.002625398337841034,-0.0013202429981902242,22:26:21.820
0.6989229321479797,-0.20129257440567017,-9.766329765319824,0.21137428283691406,0.0965726375579834,1.0668766498565674,-0.0027753417380154133,0.002250261837616563,-0.002758205635473132,22:26:21.830
0.7090068459510803,-0.20277737081050873,-9.784172058105469,0.20946455001831055,0.09558868408203125,1.0673565864562988,-0.0006660819635726511,0.0012876465916633606,-0.0013981015654280782,22:26:21.840
0.70904541015625,-0.2197432816028595,-9.769498825073242,0.2118215560913086,0.09803652763366699,1.0668776035308838,-0.0005677341832779348,0.0011282042833045125,-0.0015895813703536987,22:26:21.851
0.7226086854934692,-0.20819944143295288,-9.759740829467773,0.2099313735961914,0.0965733528137207,1.0649256706237793,-0.0009126961813308299,0.0028731301426887512,-0.0016357750864699483,22:26:21.861
0.7488707304000854,-0.17798444628715515,-9.77981185913086,0.21378660202026367,0.09707880020141602,1.0639665126800537,-0.0011965633602812886,0.000916980323381722,-0.002014264464378357,22:26:21.871
0.7787656188011169,-0.13136379420757294,-9.77601146697998,0.2084970474243164,0.09558343887329102,1.0678393840789795,-0.001574307563714683,0.000538863125257194,-0.0015258787898346782,22:26:21.881
0.8016448616981506,-0.12113549560308456,-9.775747299194336,0.21329426765441895,0.09706735610961914,1.0668833255767822,-0.004456565249711275,0.001306273159570992,-0.0012952832039445639,22:26:21.891
0.7872780561447144,-0.11014058440923691,-9.761661529541016,0.2113504409790039,0.09754729270935059,1.0668761730194092,1.4714894859935157e-05,0.0029368328396230936,-0.0013023614883422852,22:26:21.901
0.7825367450714111,-0.12040258944034576,-9.790380477905273,0.2151966094970703,0.09854316711425781,1.0649440288543701,-0.000509992300067097,0.0021809707395732403,-0.0003207474364899099,22:26:21.911
0.7725692987442017,-0.12875977158546448,-9.762544631958008,0.20848655700683594,0.09607243537902832,1.0673527717590332,-0.0021927061025053263,0.0056879594922065735,-0.0021468850318342447,22:26:21.921
0.7686441540718079,-0.1380949765443802,-9.76138687133789,0.21470880508422852,0.09853672981262207,1.066401720046997,-0.001107901451177895,0.0032166021410375834,-0.0018339604139328003,22:26:21.931
0.7328277230262756,-0.16855637729167938,-9.779532432556152,0.20807504653930664,0.09314632415771484,1.067352294921875,-0.0004190951876807958,0.001500733196735382,-0.0016756356926634908,22:26:21.941
0.7488441467285156,-0.18244090676307678,-9.790362358093262,0.2137622833251953,0.09755325317382812,1.0678579807281494,-0.001041218638420105,0.0008748846012167633,-0.0027008356992155313,22:26:21.951
0.7232807874679565,-0.1987844705581665,-9.767313003540039,0.20853638648986816,0.09462475776672363,1.0629749298095703,-0.0033807011786848307,0.002506561577320099,-0.0009097159490920603,22:26:21.961
0.7122885584831238,-0.1790112406015396,-9.779855728149414,0.2098701000213623,0.09900879859924316,1.065410852432251,-0.0034224241971969604,0.002041645348072052,-0.002293288940563798,22:26:21.971
0.6966770887374878,-0.1721622347831726,-9.777377128601074,0.2109076976776123,0.09608793258666992,1.065415620803833,-0.002095848321914673,0.0024152917321771383,-0.0013597309589385986,22:26:21.981
0.7034492492675781,-0.18745101988315582,-9.788434982299805,0.2132718563079834,0.09804344177246094,1.0663964748382568,2.142042103514541e-05,0.0009497626451775432,-0.0019405034836381674,22:26:21.991
0.6956060528755188,-0.19186915457248688,-9.779809951782227,0.20949625968933105,0.09462189674377441,1.0649244785308838,-0.002512708306312561,0.005081855226308107,-0.002975761890411377,22:26:22.001
0.7014179825782776,-0.17826208472251892,-9.783289909362793,0.21035313606262207,0.09901070594787598,1.0654125213623047,-0.000587850867304951,0.0005269423709250987,-0.0024978071451187134,22:26:22.011
0.726222813129425,-0.17073886096477509,-9.774703979492188,0.20901155471801758,0.09461855888366699,1.0654091835021973,0.0006029382348060608,-0.0011093915672972798,-0.0005424022674560547,22:26:22.021
0.7314034700393677,-0.16409091651439667,-9.776628494262695,0.21277284622192383,0.09902477264404297,1.0639619827270508,0.0004397705488372594,0.0016091391444206238,-0.0027108932845294476,22:26:22.031
0.7546315789222717,-0.1610211282968521,-9.768017768859863,0.21041440963745117,0.09657526016235352,1.064927339553833,-0.0016391279641538858,0.0007135794148780406,-0.0017955901566892862,22:26:22.041
0.7748658061027527,-0.13528254628181458,-9.775847434997559,0.21230578422546387,0.09803986549377441,1.0663931369781494,-0.0012684614630416036,0.0025881456676870584,-0.0019613653421401978,22:26:22.051
0.7657486200332642,-0.12679170072078705,-9.750216484069824,0.20855975151062012,0.09314990043640137,1.0668673515319824,-0.0031307346653193235,0.003740750253200531,-0.0005211681709624827,22:26:22.061
0.768129825592041,-0.1458972990512848,-9.76667594909668,0.21230268478393555,0.0980367660522461,1.067366123199463,-0.00151805579662323,0.003801472717896104,-0.0020332636777311563,22:26:22.071
0.7611182332038879,-0.15982042253017426,-9.768584251403809,0.20805907249450684,0.09412908554077148,1.0649194717407227,-2.421439057798125e-05,0.003490038914605975,-0.0009275974007323384,22:26:22.081
0.7525450587272644,-0.1604805290699005,-9.768906593322754,0.21134305000305176,0.09803938865661621,1.0654165744781494,-0.002881139051169157,0.004099123179912567,0.00030416998197324574,22:26:22.091
0.7428659796714783,-0.16813331842422485,-9.774043083190918,0.20952320098876953,0.09365034103393555,1.0639519691467285,0.002295710379257798,0.0007389113306999207,-0.0004455447487998754,22:26:22.101
0.7422506809234619,-0.18415965139865875,-9.75307559967041,0.21224474906921387,0.10047531127929688,1.0668785572052002,-0.001338869333267212,0.0023180621210485697,-0.00018402935529593378,22:26:22.111
0.7496339082717896,-0.17415091395378113,-9.771655082702637,0.2099759578704834,0.0946207046508789,1.065899133682251,-0.0016711652278900146,-0.0009935348061844707,5.8673322200775146e-05,22:26:22.121
0.7332023978233337,-0.16156725585460663,-9.774384498596191,0.21326470375061035,0.09853577613830566,1.064936876296997,-0.0015888363122940063,0.00230912072584033,-0.0003714114718604833,22:26:22.131
0.716392457485199,-0.1618332862854004,-9.775983810424805,0.20992350578308105,0.09656548500061035,1.0673580169677734,-0.002351403469219804,0.0031204894185066223,-0.0019256026716902852,22:26:22.141
0.7096088528633118,-0.17190620303153992,-9.769408226013184,0.21228361129760742,0.09901642799377441,1.065906047821045,-0.0020544975996017456,0.0014977530809119344,-0.0002089888002956286,22:26:22.151
0.7113672494888306,-0.1721431463956833,-9.753812789916992,0.20804715156555176,0.09461641311645508,1.0649192333221436,-0.002711639041081071,0.0028988346457481384,-0.0006668269052170217,22:26:22.161
0.7110994458198547,-0.16932512819766998,-9.770133972167969,0.21279668807983398,0.09804987907409668,1.063962459564209,9.03382824617438e-05,0.001179985818453133,-0.0012051314115524292,22:26:22.171
0.7185317277908325,-0.1617654412984848,-9.765240669250488,0.20949459075927734,0.0946204662322998,1.065410852432251,-0.0033140184823423624,0.0020390371792018414,-0.0008050351752899587,22:26:22.181
0.7330478429794312,-0.16789983212947845,-9.778393745422363,0.21472811698913574,0.09755706787109375,1.067861557006836,-0.002131238579750061,0.002728961640968919,-0.0009074807749129832,22:26:22.191
0.7182819843292236,-0.1548852026462555,-9.761537551879883,0.2085094451904297,0.0955963134765625,1.0639476776123047,-0.00482089864090085,0.0016713517252355814,-0.0013466925593093038,22:26:22.201
0.7398385405540466,-0.1481102555990219,-9.769594192504883,0.2103428840637207,0.09949946403503418,1.0649261474609375,-0.0023115428630262613,0.0045662750490009785,-0.0018835070077329874,22:26:22.211
0.7744787931442261,-0.16054019331932068,-9.775384902954102,0.20751643180847168,0.09656405448913574,1.0649168491363525,0.0017607588088139892,-0.0015944244805723429,-0.0005401671514846385,22:26:22.221
0.7651455402374268,-0.15035468339920044,-9.766914367675781,0.21330499649047852,0.09707832336425781,1.0634779930114746,0.0008663163753226399,0.003573485417291522,-0.002232939237728715,22:26:22.231
0.764336347579956,-0.1603451520204544,-9.777453422546387,0.20997166633605957,0.09511590003967285,1.0634665489196777,-0.002544000744819641,0.003303401404991746,-0.0006359070539474487,22:26:22.241
0.7584397792816162,-0.15992316603660583,-9.776208877563477,0.21131157875061035,0.09900617599487305,1.0678484439849854,-0.002013147110119462,0.0014511869521811604,-0.001039355993270874,22:26:22.251
0.7574300169944763,-0.16346906125545502,-9.775167465209961,0.2094707489013672,0.09559512138366699,1.0654106140136719,-0.0005569309578277171,0.0017920508980751038,-0.0010289252968505025,22:26:22.261
0.7601709365844727,-0.15219756960868835,-9.780404090881348,0.21135187149047852,0.0975487232208252,1.066389799118042,-0.0003665685362648219,0.0011591240763664246,-0.0019349155481904745,22:26:22.271
0.7692181468009949,-0.14954648911952972,-9.778451919555664,0.2056574821472168,0.09363389015197754,1.0644242763519287,-0.00014789403940085322,0.0023795291781425476,-0.0014230612432584167,22:26:22.281
0.7592502236366272,-0.12485210597515106,-9.776056289672852,0.21281123161315918,0.09706568717956543,1.0668816566467285,0.000458397000329569,0.0038256871048361063,-0.0014223158359527588,22:26:22.291
0.7482444047927856,-0.12878111004829407,-9.786954879760742,0.20811128616333008,0.09218430519104004,1.0634608268737793,-0.0011108815670013428,0.0022577124182134867,-0.002289190888404846,22:26:22.301
0.7276692390441895,-0.14271962642669678,-9.768960952758789,0.21134305000305176,0.09803938865661621,1.0654165744781494,-0.003917514346539974,0.0042932103388011456,-0.0011570752831175923,22:26:22.311
0.7104071974754333,-0.15931753814220428,-9.775269508361816,0.2099909782409668,0.09413647651672363,1.0649266242980957,0.0007284805178642273,0.0014098362298682332,-0.001592561835423112,22:26:22.321
0.7231504917144775,-0.15458601713180542,-9.774442672729492,0.2142021656036377,0.09950947761535645,1.0663995742797852,-0.002438947558403015,0.0027650967240333557,-0.0006381422863341868,22:26:22.331
0.7026811838150024,-0.15508458018302917,-9.784051895141602,0.20943665504455566,0.09705877304077148,1.0649235248565674,0.0013561919331550598,-0.000654161034617573,-0.00032708048820495605,22:26:22.341
0.7148773670196533,-0.16508135199546814,-9.777254104614258,0.21281886100769043,0.09707355499267578,1.0644493103027344,-0.00045113274245522916,9.499490261077881e-06,-0.0012900680303573608,22:26:22.351
0.724338948726654,-0.17325152456760406,-9.771615028381348,0.20849895477294922,0.0960850715637207,1.0634608268737793,-0.0006530433893203735,0.0018021092982962728,-0.0012423843145370483,22:26:22.361
0.7131173014640808,-0.17542974650859833,-9.790599822998047,0.21376991271972656,0.09756135940551758,1.0654256343841553,-0.002903491258621216,0.003193877637386322,-0.0025749208871275187,22:26:22.371
0.7302626967430115,-0.17818476259708405,-9.764365196228027,0.2109062671661377,0.09608626365661621,1.0659019947052002,-0.0046674166806042194,0.004791282117366791,-0.0008970499620772898,22:26:22.381
0.7296714782714844,-0.18617349863052368,-9.774053573608398,0.21185302734375,0.09706974029541016,1.0644457340240479,-0.00139400374609977,0.001232139766216278,-0.00115223228931427,22:26:22.392
0.7324010133743286,-0.20144329965114594,-9.796638488769531,0.21048283576965332,0.09364771842956543,1.065901279449463,-0.001253932830877602,0.0017812477890402079,-0.0006623566732741892,22:26:22.402
0.7534216046333313,-0.19216902554035187,-9.758157730102539,0.2128157615661621,0.09707045555114746,1.0654222965240479,-0.0017702580662444234,0.002599321538582444,-0.001903623342514038,22:26:22.412
0.7620263695716858,-0.16960567235946655,-9.774279594421387,0.20901775360107422,0.09462475776672363,1.0634632110595703,-0.0011634081602096558,0.0025862830225378275,-0.0014182180166244507,22:26:22.422
0.7602337598800659,-0.15846915543079376,-9.778726577758789,0.2118229866027832,0.0980379581451416,1.0663912296295166,-0.001964345807209611,0.0035611912608146667,-0.002399832010269165,22:26:22.432
0.7563486695289612,-0.16766247153282166,-9.777008056640625,0.20894312858581543,0.09754586219787598,1.0644350051879883,0.0008473173365928233,-0.000815466046333313,-0.002211332553997636,22:26:22.442
0.7645014524459839,-0.1798284649848938,-9.783848762512207,0.2137742042541504,0.09706592559814453,1.0678582191467285,-0.0019662082195281982,0.0031640753149986267,-0.00040344896842725575,22:26:22.452
0.7618890404701233,-0.17132458090782166,-9.785248756408691,0.2075655460357666,0.09461617469787598,1.0644309520721436,-0.0009354204521514475,0.0006867572665214539,-0.0016823412152007222,22:26:22.462
0.7540996074676514,-0.18165284395217896,-9.770417213439941,0.21231770515441895,0.09755253791809082,1.0663933753967285,-0.0032171609345823526,0.003076903522014618,-0.0015623869840055704,22:26:22.472
0.7367181777954102,-0.1643621325492859,-9.760388374328613,0.2080233097076416,0.09559106826782227,1.0649189949035645,-0.004752353299409151,0.0014154240489006042,-0.002256408566609025,22:26:22.482
0.7262133955955505,-0.17832814157009125,-9.78809928894043,0.2128157615661621,0.09707045555114746,1.0654222965240479,-0.0007789582596160471,0.004687346983700991,-0.001403316855430603,22:26:22.492
0.7172521352767944,-0.17941059172153473,-9.771574020385742,0.2099742889404297,0.0946190357208252,1.0663857460021973,-0.002938882214948535,0.0032173474319279194,-0.0005986542091704905,22:26:22.502
0.7123937606811523,-0.17653346061706543,-9.769375801086426,0.2118842601776123,0.09560275077819824,1.0659058094024658,-0.002832710510119796,0.0045953309163451195,-0.0018160787876695395,22:26:22.512
0.7239798903465271,-0.17337414622306824,-9.790846824645996,0.2089545726776123,0.0965585708618164,1.0683271884918213,0.0008577479748055339,0.00013727696205023676,-0.0014293938875198364,22:26:22.522
0.7160298824310303,-0.14906516671180725,-9.760397911071777,0.21429181098937988,0.09610414505004883,1.0644550323486328,-0.0029858206398785114,0.0023597851395606995,-0.0009331853943876922,22:26:22.532
0.7340351343154907,-0.16883334517478943,-9.788613319396973,0.2084944248199463,0.09608030319213867,1.064920425415039,-0.0021394342184066772,0.00226032012142241,-0.0018898395355790854,22:26:22.542
0.7257433533668518,-0.16935139894485474,-9.781126022338867,0.2113504409790039,0.09754729270935059,1.0668761730194092,-0.003906339406967163,0.0036532061640173197,-0.0020124020520597696,22:26:22.552
0.7358007431030273,-0.16436420381069183,-9.781746864318848,0.2094573974609375,0.09608078002929688,1.06589674949646,-0.0032439827919006348,0.004230253864079714,-0.001638755202293396,22:26:22.562
0.739506721496582,-0.15409772098064423,-9.76745891571045,0.2132558822631836,0.09902644157409668,1.0639636516571045,-0.0024955719709396362,0.0025177374482154846,-0.0014498831005766988,22:26:22.572
0.7495042681694031,-0.16314725577831268,-9.770968437194824,0.20900440216064453,0.09511065483093262,1.0639495849609375,-0.004232675302773714,0.002945028245449066,-0.0024233011063188314,22:26:22.582
0.7569701671600342,-0.14356006681919098,-9.765045166015625,0.2133464813232422,0.0951225757598877,1.0654246807098389,-0.0029232350643724203,0.0031853094696998596,-0.0013597309589385986,22:26:22.592
0.7455242872238159,-0.15989665687084198,-9.78144645690918,0.20996713638305664,0.09511113166809082,1.0649261474609375,-0.0050909812562167645,0.004763342440128326,-0.0001959502842510119,22:26:22.602
0.7718610763549805,-0.15689414739608765,-9.794404029846191,0.21522045135498047,0.09756827354431152,1.0649445056915283,-0.003995746374130249,0.0012801960110664368,0.0008719042525626719,22:26:22.612
0.7337602972984314,-0.1635897010564804,-9.73400592803955,0.20852446556091309,0.09511208534240723,1.0629746913909912,0.0008909031748771667,0.00042486938764341176,-0.0022362913005053997,22:26:22.622
0.745800793170929,-0.17824645340442657,-9.779058456420898,0.21278738975524902,0.09804034233093262,1.0668811798095703,-0.0012215228052809834,0.0036014248616993427,-0.0017326327506452799,22:26:22.632
0.7432621121406555,-0.18626905977725983,-9.793044090270996,0.20902204513549805,0.09412956237792969,1.0658957958221436,0.00036973500391468406,0.0006916002021171153,-0.0010516492184251547,22:26:22.642
0.7355239987373352,-0.18543149530887604,-9.750263214111328,0.21286654472351074,0.0951240062713623,1.0644500255584717,-0.00014379620552062988,0.0009836629033088684,-0.0011391938896849751,22:26:22.652
0.7543935179710388,-0.18311689794063568,-9.768324851989746,0.20850324630737305,0.09558987617492676,1.0658934116363525,-0.0008717179880477488,0.0025505200028419495,-0.001418963191099465,22:26:22.662
0.7359449863433838,-0.1712433248758316,-9.784708976745605,0.21139073371887207,0.09608983993530273,1.0654175281524658,-0.00011622904276009649,0.0002926215820480138,-0.0009976326255127788,22:26:22.672
0.7430750131607056,-0.16422204673290253,-9.808783531188965,0.2075791358947754,0.0941305160522461,1.0639448165893555,-0.004241615999490023,0.004268251359462738,-0.00025108459522016346,22:26:22.682
0.7304930090904236,-0.13557232916355133,-9.752458572387695,0.21280646324157715,0.0970609188079834,1.0683410167694092,-0.00289231538772583,0.0030139461159706116,-0.00033751133014447987,22:26:22.692
0.7296454310417175,-0.16199560463428497,-9.803691864013672,0.2094423770904541,0.09656524658203125,1.0668694972991943,-0.0003252178430557251,0.0020472335163503885,-0.001879036659374833,22:26:22.702
0.7386283278465271,-0.14863309264183044,-9.792557716369629,0.21328997611999512,0.09756255149841309,1.064450740814209,-0.0036384910345077515,0.0035861509386450052,-0.0013925136299803853,22:26:22.712
0.7459738254547119,-0.13953819870948792,-9.742033004760742,0.21091818809509277,0.09559893608093262,1.0659022331237793,4.284084297978552e-06,0.0015413390938192606,-0.0019527975236997008,22:26:22.722
0.7207155227661133,-0.1544765681028366,-9.781953811645508,0.21133112907409668,0.0985269546508789,1.0654163360595703,-0.0010266900062561035,0.0005802140804007649,-0.0018898401176556945,22:26:22.732
0.7370918989181519,-0.1536565124988556,-9.812333106994629,0.21142244338989258,0.0951230525970459,1.0629854202270508,-0.0014964491128921509,0.002603046828880906,-0.0024899840354919434,22:26:22.742
0.7450610399246216,-0.1445406973361969,-9.719048500061035,0.2132885456085205,0.09756088256835938,1.0649373531341553,-0.0013485550880432129,0.0035746030043810606,-0.0008862466202117503,22:26:22.752
0.736350953578949,-0.18055418133735657,-9.800493240356445,0.20989704132080078,0.0980370044708252,1.0644383430480957,-0.002660229802131653,0.005540810991078615,-0.00023692846298217773,22:26:22.762
0.7451270818710327,-0.175499826669693,-9.78124713897705,0.21232080459594727,0.09755587577819824,1.065420389175415,-0.004310905933380127,0.004297494888305664,-0.0002179294970119372,22:26:22.772
0.7449288964271545,-0.17856165766716003,-9.7474946975708,0.2119126319885254,0.09463286399841309,1.0644466876983643,-0.00409148633480072,0.003973953891545534,-0.0011317431926727295,22:26:22.782
0.7418731451034546,-0.17736831307411194,-9.77592658996582,0.21279048919677734,0.09804344177246094,1.0659081935882568,-0.0018157066078856587,0.0025467947125434875,-0.0030156224966049194,22:26:22.792
0.7396686673164368,-0.18704190850257874,-9.834951400756836,0.20950961112976074,0.09413623809814453,1.0644381046295166,-0.0031951814889907837,0.0049302359111607075,-0.0014923512935638428,22:26:22.802
0.7506333589553833,-0.19989535212516785,-9.773588180541992,0.21130585670471191,0.09949994087219238,1.0659024715423584,-0.004662199877202511,0.0044150277972221375,-0.002923608059063554,22:26:22.812
0.7424767017364502,-0.16370636224746704,-9.690998077392578,0.2075505256652832,0.09510040283203125,1.065403699874878,-0.001323595643043518,0.002857484156265855,-0.0016938894987106323,22:26:22.822
0.762677013874054,-0.15890923142433167,-9.84820556640625,0.21469855308532715,0.09902572631835938,1.0659148693084717,-0.005277618765830994,0.004422851372510195,-0.003327056998386979,22:26:22.832
0.7468428611755371,-0.16747364401817322,-9.791167259216309,0.2089536190032959,0.09705686569213867,1.0649218559265137,-0.0029876830521970987,0.00279303640127182,-0.0020019712392240763,22:26:22.842
0.7218129634857178,-0.15381303429603577,-9.687191009521484,0.21133685111999512,0.09803295135498047,1.0673625469207764,-0.000835210143122822,0.0034639618825167418,-0.003205239772796631,22:26:22.852
0.7460322976112366,-0.17211376130580902,-9.791304588317871,0.20904278755187988,0.09315156936645508,1.0668692588806152,-0.003340840572491288,0.0022625550627708435,-0.0009760259999893606,22:26:22.862
0.7238602042198181,-0.15987129509449005,-9.786213874816895,0.21325111389160156,0.09902167320251465,1.0654230117797852,-0.0014413148164749146,0.0001123174952226691,-0.002785772318020463,22:26:22.872
0.729332685470581,-0.1466967910528183,-9.78604507446289,0.2090132236480713,0.0946199893951416,1.06492280960083,-0.005264581646770239,0.004405714571475983,-0.00157728826161474,22:26:22.882
0.7504692077636719,-0.13972653448581696,-9.790687561035156,0.21232247352600098,0.09755730628967285,1.0649340152740479,-0.003139302134513855,0.003192014992237091,-0.0017568470211699605,22:26:22.892
0.7375993728637695,-0.14943642914295197,-9.748135566711426,0.20850634574890137,0.09559297561645508,1.0649206638336182,-0.002979487646371126,0.0015916306292638183,-0.0024255369789898396,22:26:22.902
0.7339893579483032,-0.16321617364883423,-9.792642593383789,0.2132735252380371,0.09804511070251465,1.0659098625183105,-0.004488973878324032,0.00453535420820117,-0.0017233194084838033,22:26:22.912
0.7305372357368469,-0.17439532279968262,-9.758488655090332,0.20899200439453125,0.09509778022766113,1.0678412914276123,-0.004281476605683565,0.004566646181046963,-0.00018030406499747187,22:26:22.922
0.709292471408844,-0.17697417736053467,-9.747690200805664,0.21228313446044922,0.09851622581481934,1.0697979927062988,-0.0027723610401153564,0.0032531102187931538,-0.0011105091543868184,22:26:22.933
0.7302449941635132,-0.18640173971652985,-9.791352272033691,0.20900273323059082,0.0951089859008789,1.0644359588623047,-0.0008009375887922943,0.0024536624550819397,-0.0014856458874419332,22:26:22.943
0.7291777729988098,-0.17764943838119507,-9.756629943847656,0.21373677253723145,0.0985267162322998,1.0683438777923584,-0.004709884990006685,0.00370759516954422,-0.0034943222999572754,22:26:22.953
0.758951723575592,-0.16371214389801025,-9.746894836425781,0.20851659774780273,0.09510421752929688,1.0654070377349854,-0.0011410564184188843,0.003640540177002549,-0.0015716999769210815,22:26:22.963
0.7506192922592163,-0.1631559580564499,-9.783802032470703,0.2122955322265625,0.09852910041809082,1.065906286239624,-0.005736947525292635,0.003902428550645709,0.00015515834093093872,22:26:22.973
0.7489146590232849,-0.18918421864509583,-9.770567893981934,0.20754742622375488,0.09509706497192383,1.0663766860961914,0.00031199303339235485,0.0013543290551751852,-0.002601369982585311,22:26:22.983
0.7597903609275818,-0.16061344742774963,-9.791869163513184,0.21137738227844238,0.09657573699951172,1.065903663635254,-0.0027474015951156616,0.002153404289856553,-0.0011008231667801738,22:26:22.993
0.7488564848899841,-0.16759264469146729,-9.778393745422363,0.20899510383605957,0.09510111808776855,1.0668683052062988,-0.0053830454126000404,0.00426527252420783,-0.001043081283569336,22:26:23.003
0.7427304983139038,-0.1600772589445114,-9.773305892944336,0.20987892150878906,0.09851813316345215,1.0663840770721436,-0.00031739476253278553,0.0011591241927817464,-0.0018358230590820312,22:26:23.013
0.7359784245491028,-0.17306913435459137,-9.78553295135498,0.2099592685699463,0.09510326385498047,1.0673584938049316,-0.0014610589714720845,0.002755783498287201,-0.0014800579519942403,22:26:23.023
0.7492920160293579,-0.1524956375360489,-9.769753456115723,0.21281003952026367,0.0975639820098877,1.0634760856628418,-0.003324449760839343,0.004889629781246185,-0.0007849186658859253,22:26:23.033
0.7345943450927734,-0.15964756906032562,-9.763758659362793,0.20803213119506836,0.09510064125061035,1.0658917427062988,-0.0033937401603907347,0.0025188555009663105,-0.0008020551758818328,22:26:23.043
0.7400741577148438,-0.15517595410346985,-9.778797149658203,0.2132718563079834,0.09804344177246094,1.0663964748382568,-0.0027827913872897625,0.0038510183803737164,-0.00252909935079515,22:26:23.053
0.7318239808082581,-0.15107186138629913,-9.776616096496582,0.20853328704833984,0.09462165832519531,1.0639479160308838,-0.002229213947430253,0.0020446255803108215,-0.0006362796411849558,22:26:23.063
0.7448657155036926,-0.16458463668823242,-9.777040481567383,0.21425461769104004,0.097564697265625,1.0649409294128418,-0.002096593612805009,0.0009948387742042542,-0.0015135854482650757,22:26:23.073
0.7226951122283936,-0.1545363962650299,-9.77790355682373,0.20996308326721191,0.09560656547546387,1.0624938011169434,-0.0009365379810333252,0.0017663465114310384,-0.0006012618541717529,22:26:23.083
0.7341927886009216,-0.16341450810432434,-9.77665901184082,0.21430683135986328,0.09561991691589355,1.0634822845458984,-0.003077462548390031,0.0044418503530323505,-0.0009074807167053223,22:26:23.093
0.7315720319747925,-0.1650800257921219,-9.775906562805176,0.20944857597351074,0.09657144546508789,1.0649237632751465,-0.004088506568223238,0.005043111741542816,-0.0025350607465952635,22:26:23.103
0.7303054332733154,-0.17006580531597137,-9.777776718139648,0.21379947662353516,0.09609270095825195,1.0673723220825195,-0.003976002335548401,0.0020006673876196146,-0.00038333245902322233,22:26:23.113
0.7355619072914124,-0.16105841100215912,-9.769161224365234,0.20949459075927734,0.0946204662322998,1.065410852432251,-0.001646578311920166,0.0050878156907856464,-0.0015359374228864908,22:26:23.123
0.747903048992157,-0.15410296618938446,-9.785139083862305,0.21324801445007324,0.09901833534240723,1.0663959980010986,-0.0025268644094467163,0.0028902660124003887,0.0005355105386115611,22:26:23.133
0.7439808249473572,-0.16090524196624756,-9.770378112792969,0.20847773551940918,0.09656310081481934,1.0663795471191406,-0.0014334915904328227,0.00325571745634079,-0.003272667760029435,22:26:23.143
0.7396637201309204,-0.15941473841667175,-9.764062881469727,0.21236085891723633,0.09559822082519531,1.0678536891937256,-0.003112480044364929,0.0022219496313482523,-0.0021405520383268595,22:26:23.153
0.7537652850151062,-0.17414803802967072,-9.775813102722168,0.21135354042053223,0.0975503921508789,1.0659031867980957,-0.0023018568754196167,0.0034829608630388975,-0.00241696834564209,22:26:23.163
0.7561708688735962,-0.1786801517009735,-9.769262313842773,0.211334228515625,0.09853005409240723,1.0644433498382568,-0.0009413807420060039,0.0023437663912773132,-1.0803342775034253e-05,22:26:23.173
0.7698414921760559,-0.16819913685321808,-9.780767440795898,0.20949625968933105,0.09462189674377441,1.0649244785308838,-0.001888349885120988,0.0023504726123064756,-0.0014539810363203287,22:26:23.183
0.7590513825416565,-0.16844049096107483,-9.779471397399902,0.21332430839538574,0.09609866142272949,1.0649380683898926,-0.0008191915112547576,0.00260230153799057,5.19677996635437e-05,22:26:23.193
0.7657662034034729,-0.16388380527496338,-9.7841215133667,0.20995044708251953,0.09559369087219238,1.0663855075836182,-0.003912672866135836,0.0052811577916145325,-0.0020507725421339273,22:26:23.203
0.7424023747444153,-0.16765984892845154,-9.774160385131836,0.2146906852722168,0.09901785850524902,1.0683472156524658,-0.004992261528968811,0.005162321031093597,-0.0027973211836069822,22:26:23.213
0.7305277585983276,-0.16001921892166138,-9.778610229492188,0.2104635238647461,0.09462738037109375,1.064441442489624,-0.0008303673239424825,0.002172403270378709,-0.0021301214583218098,22:26:23.223
0.7326000332832336,-0.16977013647556305,-9.775793075561523,0.21666646003723145,0.09757089614868164,1.065922498703003,0.0016091391444206238,0.00038165602018125355,-0.002186000579968095,22:26:23.233
0.7396088242530823,-0.1812848448753357,-9.78736686706543,0.210435152053833,0.0955972671508789,1.0659005641937256,-1.6763806343078613e-05,-0.0013101844815537333,-0.0009488313226029277,22:26:23.243
0.737619936466217,-0.16201011836528778,-9.771379470825195,0.21183037757873535,0.09754586219787598,1.0678508281707764,-0.0005483627901412547,0.0030124562326818705,-0.002606213092803955,22:26:23.253
0.7254248261451721,-0.14686137437820435,-9.76834774017334,0.20996713638305664,0.09511113166809082,1.0649261474609375,-0.002722814679145813,0.004067458678036928,-0.0017471611499786377,22:26:23.263
0.7260380983352661,-0.16736508905887604,-9.779928207397461,0.21186184883117676,0.09657931327819824,1.0654189586639404,-0.002114475006237626,0.001615472137928009,-0.00172443687915802,22:26:23.273
0.7442998886108398,-0.1510840207338333,-9.77717399597168,0.21184277534484863,0.09755873680114746,1.0639591217041016,-0.0024832787457853556,0.0056257471442222595,-0.002060085767880082,22:26:23.283
0.7318036556243896,-0.16097226738929749,-9.773768424987793,0.21135187149047852,0.0975487232208252,1.066389799118042,-0.002838298911228776,0.0020531939808279276,-0.002275779377669096,22:26:23.293
0.7457335591316223,-0.13799601793289185,-9.776463508605957,0.20943188667297363,0.09705400466918945,1.066382884979248,-0.002923608059063554,0.0018967315554618835,-0.0009257346973754466,22:26:23.303
0.7489224672317505,-0.15175198018550873,-9.77779769897461,0.21275734901428223,0.09900879859924316,1.068826675415039,0.0006860122084617615,0.0012708829017356038,-0.001987815136089921,22:26:23.313
0.7310725450515747,-0.16466185450553894,-9.780023574829102,0.21045899391174316,0.09462261199951172,1.0659008026123047,-0.0037033110857009888,0.002671219641342759,-0.0029012560844421387,22:26:23.323
0.7382330298423767,-0.1649281084537506,-9.768827438354492,0.2137906551361084,0.09658336639404297,1.066399097442627,-0.0009667128906585276,0.003158860607072711,-0.0006560236215591431,22:26:23.333
0.7446929812431335,-0.17687691748142242,-9.783126831054688,0.21091508865356445,0.0955958366394043,1.0668752193450928,-0.0028755515813827515,0.005123205948621035,-0.0022254884243011475,22:26:23.343
0.730830729007721,-0.17675328254699707,-9.797093391418457,0.21234631538391113,0.09658265113830566,1.064934492111206,-0.003124028444290161,0.004516356159001589,-0.002750382060185075,22:26:23.353
0.755567729473114,-0.16657622158527374,-9.772528648376465,0.2099924087524414,0.09413814544677734,1.0644400119781494,-0.00015422701835632324,0.0013345853658393025,-0.0012796372175216675,22:26:23.363
0.7599367499351501,-0.17202270030975342,-9.76438045501709,0.21331381797790527,0.0965878963470459,1.0644512176513672,0.0004505739489104599,0.0012991951080039144,0.00018719583749771118,22:26:23.373
0.7527165412902832,-0.1674487441778183,-9.796099662780762,0.20755791664123535,0.09460830688476562,1.0668632984161377,-0.0034291299525648355,0.0033935531973838806,-0.0003196299367118627,22:26:23.383
0.7472765445709229,-0.16379927098751068,-9.773615837097168,0.2118053436279297,0.09901928901672363,1.0644447803497314,-0.002256408566609025,0.003121979534626007,-3.5762786865234375e-05,22:26:23.393
0.7460010051727295,-0.16198720037937164,-9.752742767333984,0.20900702476501465,0.09461379051208496,1.066868543624878,-0.0007674099178984761,0.0019343573367223144,-0.0019982457160949707,22:26:23.403
0.7359473705291748,-0.15592359006404877,-9.781152725219727,0.21131038665771484,0.09950470924377441,1.0644431114196777,-0.005057827103883028,0.0025453048292547464,-0.00272504985332489,22:26:23.413
0.748055636882782,-0.16893069446086884,-9.76870346069336,0.20955419540405273,0.09218358993530273,1.0654120445251465,-0.00015422700380440801,0.0003518536686897278,-0.00048242512275464833,22:26:23.423
0.7402646541595459,-0.1573004275560379,-9.766777038574219,0.21132659912109375,0.09852218627929688,1.066875696182251,-0.0014249233063310385,0.0009505077614448965,-0.0008206815109588206,22:26:23.433
0.7247126698493958,-0.14487645030021667,-9.780381202697754,0.20948433876037598,0.09510922431945801,1.0649242401123047,6.128102540969849e-05,0.0035380946937948465,-0.0022783875465393066,22:26:23.443
0.7387744188308716,-0.1642877459526062,-9.78612232208252,0.21233844757080078,0.09657478332519531,1.0673668384552002,-0.00032521781395189464,0.002534501487389207,-0.0006064772605895996,22:26:23.453
0.7164452075958252,-0.15007083117961884,-9.784884452819824,0.20754432678222656,0.09509396553039551,1.0673496723175049,-0.0014804303646087646,0.0008745119557715952,-0.000821426510810852,22:26:23.464
0.725098729133606,-0.15222623944282532,-9.767166137695312,0.21230125427246094,0.09803509712219238,1.06785249710083,-0.0019200143869966269,0.0023743140045553446,-0.0018220393685624003,22:26:23.474
0.7237175703048706,-0.17123906314373016,-9.787830352783203,0.21094036102294922,0.09462261199951172,1.0663890838623047,-0.0009257346391677856,0.0023586677853018045,0.0002911314368247986,22:26:23.484
0.7258573770523071,-0.1583367884159088,-9.773487091064453,0.211836576461792,0.09755229949951172,1.0659048557281494,0.0012030825018882751,0.0014135611709207296,-0.0018265097169205546,22:26:23.494
0.7516751885414124,-0.16071349382400513,-9.778792381286621,0.21042466163635254,0.09608626365661621,1.0654139518737793,-0.0005815178155899048,0.0024324285332113504,-0.0009600074263289571,22:26:23.504
0.7381336092948914,-0.16432057321071625,-9.785087585449219,0.2147207260131836,0.09804916381835938,1.0664019584655762,0.0003078952431678772,0.0022480266634374857,-0.0013224781723693013,22:26:23.514
0.7366867065429688,-0.17556974291801453,-9.772727966308594,0.20853900909423828,0.09412789344787598,1.0658938884735107,-0.0032257295679301023,0.0033503402955830097,-0.0019382688915356994,22:26:23.524
0.7562354207038879,-0.151502788066864,-9.769482612609863,0.21326732635498047,0.0980386734008789,1.0678558349609375,-0.004652515519410372,0.002324395114555955,-0.000624731183052063,22:26:23.534
0.7489346861839294,-0.1558982878923416,-9.774433135986328,0.2099132537841797,0.09705448150634766,1.066871166229248,-0.001338496571406722,0.003661401802673936,-0.0013198703527450562,22:26:23.544
0.7423713803291321,-0.1745723932981491,-9.775655746459961,0.21183347702026367,0.0975492000579834,1.066877841949463,-0.0015653670998290181,0.0004896894097328186,-0.0007547438144683838,22:26:23.554
0.7462542653083801,-0.15518173575401306,-9.771477699279785,0.21092700958251953,0.0951085090637207,1.0668752193450928,0.0014213845133781433,0.000625290151219815,-0.0016968697309494019,22:26:23.564
0.7548837661743164,-0.1483173817396164,-9.771950721740723,0.21233129501342773,0.09706687927246094,1.0659070014953613,-0.0019527972908690572,0.0033671038690954447,-0.0011496245861053467,22:26:23.574
0.7416466474533081,-0.15170177817344666,-9.784470558166504,0.20948123931884766,0.09510612487792969,1.065896987915039,-0.0029847025871276855,0.004039146471768618,-0.0013403594493865967,22:26:23.584
0.7405299544334412,-0.1519419550895691,-9.787435531616211,0.2123255729675293,0.09756064414978027,1.0639610290527344,-0.0028487297240644693,0.0035313889384269714,-0.0012822449207305908,22:26:23.594
0.7205254435539246,-0.1573764681816101,-9.766510963439941,0.20848822593688965,0.09607410430908203,1.066866159439087,-0.003186613554134965,0.0034661968238651752,-0.0011529774637892842,22:26:23.604
0.7315925359725952,-0.1681363731622696,-9.769426345825195,0.2122819423675537,0.0990147590637207,1.0663926601409912,-0.003514811396598816,0.003552250564098358,-0.002272054785862565,22:26:23.614
0.7420597672462463,-0.15833419561386108,-9.766464233398438,0.21144890785217285,0.09365129470825195,1.0659048557281494,-0.004655495751649141,0.003542192280292511,0.0002836808271240443,22:26:23.624
0.7434219121932983,-0.15944387018680573,-9.795191764831543,0.21282625198364258,0.09658145904541016,1.0659089088439941,-0.00022947789693716913,0.002864561975002289,-0.0015936791896820068,22:26:23.634
0.7295689582824707,-0.15453341603279114,-9.769857406616211,0.2085103988647461,0.09509778022766113,1.0673530101776123,-0.0034302477724850178,0.0023828826379030943,-0.0011183321475982666,22:26:23.644
0.746522843837738,-0.17212651669979095,-9.790023803710938,0.2108631134033203,0.09804058074951172,1.0644416809082031,-0.00047758224536664784,0.0021329151932150126,-0.0024907290935516357,22:26:23.654
0.7265604734420776,-0.165305957198143,-9.767386436462402,0.20903229713439941,0.09364032745361328,1.066382646560669,-0.0004358590522315353,0.0013044103980064392,-0.0009205194073729217,22:26:23.664
0.7432581186294556,-0.16829277575016022,-9.78957748413086,0.21086573600769043,0.09754371643066406,1.0673608779907227,-0.0014886263525113463,0.003982521593570709,-0.0021725893020629883,22:26:23.674
0.7397754192352295,-0.17322468757629395,-9.784889221191406,0.20852231979370117,0.09461045265197754,1.0673532485961914,-0.003131852252408862,0.003941543400287628,-0.0034689910244196653,22:26:23.684
0.7359648942947388,-0.15660031139850616,-9.771873474121094,0.2147073745727539,0.09853529930114746,1.0668880939483643,-0.0001981854875339195,0.0022141265217214823,-0.0004686415777541697,22:26:23.694
0.7430394887924194,-0.14264193177223206,-9.766411781311035,0.21047496795654297,0.09363985061645508,1.068333625793457,-0.00268593430519104,0.0021988528314977884,-0.0013198703527450562,22:26:23.704
0.7554723024368286,-0.15996785461902618,-9.772138595581055,0.21373414993286133,0.09902358055114746,1.065424919128418,-0.0003449619107414037,0.002533756196498871,-0.0025179232470691204,22:26:23.714
0.7496829032897949,-0.16445530951023102,-9.761269569396973,0.2095019817352295,0.09412837028503418,1.0668704509735107,0.00017154963279608637,0.0013144686818122864,-0.0014193359529599547,22:26:23.724
0.7481468915939331,-0.16273292899131775,-9.788504600524902,0.211334228515625,0.09853005409240723,1.0644433498382568,0.0008417293429374695,0.0010242685675621033,-0.0014089049072936177,22:26:23.734
0.7424887418746948,-0.16660793125629425,-9.781126022338867,0.20711231231689453,0.09314560890197754,1.066375732421875,0.0006036831764504313,0.0017525629373267293,-0.0005882233381271362,22:26:23.744
0.7454134225845337,-0.17954619228839874,-9.767672538757324,0.2132885456085205,0.09756088256835938,1.0649373531341553,-0.0024128707591444254,0.0025162473320961,-0.0012870877981185913,22:26:23.754
0.7560666799545288,-0.15253287553787231,-9.750890731811523,0.2080528736114502,0.09412288665771484,1.0668652057647705,-0.002165883779525757,0.0004144386330153793,-0.0006292015314102173,22:26:23.764
0.7385568022727966,-0.1673618108034134,-9.761442184448242,0.21233439445495605,0.09706997871398926,1.064934253692627,-0.0029966235160827637,0.0028965994715690613,0.0005854294286109507,22:26:23.774
0.7485864758491516,-0.16308389604091644,-9.796269416809082,0.208024263381958,0.0950927734375,1.068324089050293,0.001136772450990975,0.0027744099497795105,-0.001389905926771462,22:26:23.784
0.7598514556884766,-0.15599000453948975,-9.783516883850098,0.213301420211792,0.09657526016235352,1.068342924118042,-0.001559406635351479,0.0021805986762046814,-0.0004865229711867869,22:26:23.794
0.7406863570213318,-0.15605948865413666,-9.752742767333984,0.21094512939453125,0.09462738037109375,1.064929723739624,-0.0023208565544337034,0.003814511466771364,-0.00047273942618630826,22:26:23.804
0.7315564155578613,-0.16888362169265747,-9.775933265686035,0.2132718563079834,0.09804344177246094,1.0663964748382568,-0.0007525086984969676,0.002341903978958726,-0.0013746321201324463,22:26:23.814
0.7384721040725708,-0.15705351531505585,-9.783132553100586,0.20995354652404785,0.0955970287322998,1.0654125213623047,-0.004884600639343262,0.003978425171226263,-0.0029236082918941975,22:26:23.824
0.7423422336578369,-0.156107097864151,-9.767901420593262,0.21133852005004883,0.09803462028503418,1.06687593460083,-0.0004440546908881515,0.0009683893295004964,-0.0018440189305692911,22:26:23.834
0.7426379323005676,-0.15102292597293854,-9.771804809570312,0.20943045616149902,0.09705257415771484,1.0668692588806152,-0.0033814464695751667,0.0039240350015461445,-0.0025041401386260986,22:26:23.844
0.7410297989845276,-0.14881257712841034,-9.77928638458252,0.21425414085388184,0.09706473350524902,1.0688328742980957,-0.0008016825304366648,0.0034326689783483744,-0.003411620855331421,22:26:23.854
0.7301905155181885,-0.1492418795824051,-9.780159950256348,0.2080082893371582,0.09607529640197754,1.0658915042877197,-0.0018410385819151998,0.003327988088130951,-0.00012964011693838984,22:26:23.864
0.7357074022293091,-0.16738206148147583,-9.783249855041504,0.21332263946533203,0.09609723091125488,1.0654244422912598,-0.003983825445175171,0.004073418211191893,-0.0012621282367035747,22:26:23.874
0.7499261498451233,-0.16773882508277893,-9.778093338012695,0.2100355625152588,0.09218382835388184,1.0659003257751465,0.000507943332195282,-0.0008277595625258982,-0.0011317431926727295,22:26:23.884
0.7548848986625671,-0.17548219859600067,-9.776922225952148,0.21137428283691406,0.0965726375579834,1.0668766498565674,0.00022407622600439936,0.0028217213694006205,-0.0013016161974519491,22:26:23.894
0.738538920879364,-0.1620010882616043,-9.788823127746582,0.21043968200683594,0.09560203552246094,1.064441204071045,-0.002699345350265503,0.002277828985825181,0.0004889443516731262,22:26:23.904
0.7471598386764526,-0.16671566665172577,-9.780071258544922,0.21185779571533203,0.09707450866699219,1.0629863739013672,-0.0023346394300460815,0.0032478945795446634,-0.0011518598766997457,22:26:23.914
0.7479313015937805,-0.15662717819213867,-9.773331642150879,0.20946931838989258,0.09559345245361328,1.065896987915039,-0.0008080154657363892,0.0026119875255972147,-0.0008538365364074707,22:26:23.924
0.7545673251152039,-0.16047118604183197,-9.782022476196289,0.2113637924194336,0.0970613956451416,1.066390037536621,-0.005635619629174471,0.002023019129410386,-0.0007227063179016113,22:26:23.934
0.7448352575302124,-0.161445751786232,-9.773344039916992,0.20946455001831055,0.09558868408203125,1.0673565864562988,-0.004076958168298006,0.004902668297290802,-0.0008367002592422068,22:26:23.944
0.7455571293830872,-0.17047086358070374,-9.77388858795166,0.2113187313079834,0.09851408004760742,1.0693080425262451,-0.0031024219933897257,0.0020312145352363586,-0.0014878807123750448,22:26:23.954
0.7542256116867065,-0.17447848618030548,-9.775516510009766,0.20902204513549805,0.09412956237792969,1.0658957958221436,-0.0018332157051190734,0.002349354326725006,-0.0018179420148953795,22:26:23.964
0.7419409155845642,-0.1644206941127777,-9.776333808898926,0.21182465553283691,0.09803962707519531,1.0659046173095703,-0.0011149793863296509,0.002129189670085907,-0.00039897862006910145,22:26:23.974
0.7390414476394653,-0.15340684354305267,-9.790882110595703,0.20802903175354004,0.09509754180908203,1.0668647289276123,0.000558607280254364,0.001960806781426072,-0.0014338642358779907,22:26:23.984
0.7428997159004211,-0.14257025718688965,-9.781684875488281,0.21280241012573242,0.09755611419677734,1.065908432006836,-0.0024192039854824543,0.00412594573572278,-0.0007826836663298309,22:26:23.994
0.7327753901481628,-0.15625035762786865,-9.769309997558594,0.2104930877685547,0.09315872192382812,1.0663881301879883,-0.0035036359913647175,0.004593470599502325,-9.164215589407831e-05,22:26:24.005
0.7466450333595276,-0.15489190816879272,-9.76931095123291,0.20895624160766602,0.09656000137329102,1.067840814590454,-0.0022511929273605347,0.004912726581096649,-0.0028371813241392374,22:26:24.015
0.7406840324401855,-0.15509220957756042,-9.773136138916016,0.21096014976501465,0.09414339065551758,1.0639569759368896,-0.0014562159776687622,0.0010950491996482015,-0.0007759779691696167,22:26:24.025
0.7418220639228821,-0.16576208174228668,-9.773872375488281,0.21378350257873535,0.0970754623413086,1.0649394989013672,-0.002333894604817033,0.00401083379983902,-0.0011797994375228882,22:26:24.035
0.7308735251426697,-0.18287250399589539,-9.764506340026855,0.20710039138793945,0.09363293647766113,1.066375494003296,-0.00464320182800293,0.004225038457661867,-0.0032782554626464844,22:26:24.045
0.7445371747016907,-0.1666851043701172,-9.776389122009277,0.21286344528198242,0.09512090682983398,1.0654230117797852,-0.0033833086490631104,0.004881806671619415,-0.0019118190975859761,22:26:24.055
0.7414190769195557,-0.1578536331653595,-9.798930168151855,0.21037817001342773,0.09753727912902832,1.0688185691833496,-0.000568479357752949,0.003664009738713503,-0.0009693207102827728,22:26:24.065
0.7466764450073242,-0.15084540843963623,-9.783426284790039,0.21181988716125488,0.09803485870361328,1.06736421585083,-0.0006753951893188059,0.003780983854085207,-0.001800432801246643,22:26:24.075
0.7568634152412415,-0.15906251966953278,-9.779204368591309,0.20846271514892578,0.09704732894897461,1.067352294921875,0.00020880252122879028,0.000570528267417103,-0.0009156763553619385,22:26:24.085
0.7552213072776794,-0.16337013244628906,-9.779260635375977,0.21284842491149902,0.09560489654541016,1.0663959980010986,-0.002013519639149308,0.0013476238818839192,-3.725290298461914e-06,22:26:24.095
0.746569037437439,-0.1813046932220459,-9.758845329284668,0.20804977416992188,0.09411954879760742,1.067838191986084,0.000440888135926798,0.00329483300447464,-0.0018671156140044332,22:26:24.105
0.738868236541748,-0.17765210568904877,-9.780003547668457,0.21278738975524902,0.09804034233093262,1.0668811798095703,-0.0005185604677535594,0.0007884576916694641,-0.00194646418094635,22:26:24.115
0.7418177127838135,-0.17410463094711304,-9.776028633117676,0.2104039192199707,0.09706425666809082,1.0644404888153076,-0.0036049634218215942,0.0029059129301458597,-0.002382323145866394,22:26:24.125
0.7573873996734619,-0.1534525603055954,-9.789304733276367,0.21428251266479492,0.09609460830688477,1.0673739910125732,-0.0003505499043967575,0.0017704445635899901,-0.0017125161830335855,22:26:24.135
0.7426377534866333,-0.14414390921592712,-9.779996871948242,0.20801401138305664,0.0955815315246582,1.0678377151489258,-0.0021774324122816324,0.00577438622713089,-0.0007532537565566599,22:26:24.145
0.7498089075088501,-0.151970773935318,-9.781000137329102,0.2123265266418457,0.0970621109008789,1.067366600036621,-0.0008687377558089793,0.003814511001110077,-0.0018149614334106445,22:26:24.155
0.7271662354469299,-0.1717933565378189,-9.786388397216797,0.2094407081604004,0.09656357765197754,1.0673561096191406,-0.004465878009796143,0.0030064962338656187,0.00038277357816696167,22:26:24.165
0.7337048649787903,-0.17175181210041046,-9.774998664855957,0.21381306648254395,0.09560704231262207,1.0668859481811523,-0.0013198703527450562,0.0014616174157708883,-0.0009626150713302195,22:26:24.175
0.7320286631584167,-0.16562794148921967,-9.775272369384766,0.21043968200683594,0.09560203552246094,1.064441204071045,0.00027734789182431996,0.0003432855010032654,-0.0014558435650542378,22:26:24.185
0.7354317307472229,-0.15373694896697998,-9.766091346740723,0.21428155899047852,0.09659337997436523,1.0639684200286865,-0.001093745231628418,0.0025322663132101297,-0.001863017794676125,22:26:24.195
0.722776472568512,-0.16004393994808197,-9.771392822265625,0.21091032028198242,0.09559106826782227,1.0683345794677734,-0.0015426428290084004,0.0022934749722480774,-0.0006526709184981883,22:26:24.205
0.731794536113739,-0.16349118947982788,-9.765152931213379,0.21132183074951172,0.09851741790771484,1.0683350563049316,0.0008219853043556213,7.729977369308472e-05,-0.0017892570467665792,22:26:24.215
0.7396848797798157,-0.16467897593975067,-9.786986351013184,0.21001172065734863,0.09315848350524902,1.0658998489379883,-0.002646073931828141,0.0031111761927604675,-0.0016141684027388692,22:26:24.225
0.7373958826065063,-0.15368613600730896,-9.78191089630127,0.21282458305358887,0.09657979011535645,1.0663955211639404,-0.0011995435925200582,0.0033078715205192566,-0.0008553266525268555,22:26:24.235
0.7387758493423462,-0.16618508100509644,-9.777565002441406,0.2104661464691162,0.0941305160522461,1.0673606395721436,-0.004605576395988464,0.004143454600125551,-0.0001776963472366333,22:26:24.245
0.7212355732917786,-0.15190257132053375,-9.790558815002441,0.2127842903137207,0.0980370044708252,1.0678541660308838,-0.0010605903808027506,0.0032706190831959248,-0.002112612361088395,22:26:24.255
0.7387629747390747,-0.17159801721572876,-9.767587661743164,0.20898938179016113,0.09559464454650879,1.064922571182251,-0.0022552902810275555,0.003629363840445876,-0.0013481825590133667,22:26:24.265
0.7370392084121704,-0.17579691112041473,-9.779247283935547,0.2151966094970703,0.09854316711425781,1.0649440288543701,-0.0015791505575180054,0.001606159028597176,-0.0010192393092438579,22:26:24.275
0.7663682103157043,-0.16848237812519073,-9.763710021972656,0.2104947566986084,0.09316039085388184,1.065901517868042,-0.0018242747755721211,0.0014333054423332214,-0.0026952477637678385,22:26:24.285
0.7428382635116577,-0.17292159795761108,-9.774175643920898,0.21184849739074707,0.09706497192382812,1.0659050941467285,-0.002934038871899247,0.0026976692024618387,-0.0011689960956573486,22:26:24.295
0.7313597202301025,-0.15964436531066895,-9.740163803100586,0.21002507209777832,0.09267282485961914,1.0654137134552002,-0.0018194321310147643,0.0010097399353981018,-0.00113286089617759,22:26:24.305
0.7403191924095154,-0.15834303200244904,-9.761200904846191,0.21186494827270508,0.09658241271972656,1.064445972442627,-0.0037774445954710245,0.0026015560142695904,-0.0012755391653627157,22:26:24.315
0.7386747598648071,-0.16739732027053833,-9.783830642700195,0.20998787879943848,0.09413337707519531,1.06589937210083,-0.0022374095860868692,0.003466568887233734,-0.0005360693321563303,22:26:24.325
0.7389684319496155,-0.16248755156993866,-9.772218704223633,0.2118515968322754,0.09706807136535645,1.0649323463439941,-1.8626454902914702e-06,0.0022495167795568705,-0.001677870750427246,22:26:24.335
0.7311774492263794,-0.16699279844760895,-9.777073860168457,0.20905041694641113,0.09315943717956543,1.064436912536621,-0.00038668516208417714,0.0017402693629264832,-0.0023759903851896524,22:26:24.345
0.7318712472915649,-0.15329504013061523,-9.771262168884277,0.21327495574951172,0.09804677963256836,1.0654234886169434,-0.0009901822777464986,0.002816133201122284,-0.0017318874597549438,22:26:24.355
0.7318791151046753,-0.1511969417333603,-9.782292366027832,0.20989251136779785,0.09803223609924316,1.0658977031707764,-0.0011090190382674336,0.0016743317246437073,-0.0017601997824385762,22:26:24.365
0.7518107891082764,-0.14579585194587708,-9.776483535766602,0.21278166770935059,0.09853410720825195,1.0649352073669434,-0.0024050476495176554,0.0013729558559134603,-0.001638755202293396,22:26:24.375
0.7414675354957581,-0.1452063024044037,-9.76059627532959,0.20951390266418457,0.09364080429077148,1.0668706893920898,-0.004317983984947205,0.0037537890020757914,-0.0005733221769332886,22:26:24.385
0.7466413378715515,-0.14211203157901764,-9.786566734313965,0.21085238456726074,0.09802937507629395,1.0678470134735107,-0.0031515962909907103,0.003465451765805483,-0.003043562639504671,22:26:24.395
0.7366499900817871,-0.15291282534599304,-9.776611328125,0.20946931838989258,0.09559345245361328,1.065896987915039,0.00023152679204940796,0.002139620715752244,-0.001037493348121643,22:26:24.405
0.7358863949775696,-0.16523979604244232,-9.783075332641602,0.21232342720031738,0.09705901145935059,1.0683393478393555,-0.0016342848539352417,0.003757887054234743,-0.0020567330066114664,22:26:24.415
0.7424159049987793,-0.1729794144630432,-9.790921211242676,0.20949149131774902,0.09461712837219238,1.0663838386535645,-0.00023096802760846913,-0.0008091332274489105,-6.258489156607538e-05,22:26:24.425
0.746001124382019,-0.16510586440563202,-9.766273498535156,0.2132258415222168,0.09999465942382812,1.0659091472625732,-0.0008236618596129119,0.0019481407944113016,-0.001066550612449646,22:26:24.435
0.7561675310134888,-0.1536664515733719,-9.768380165100098,0.20803523063659668,0.09510374069213867,1.0649189949035645,0.0002065673761535436,0.0036953024100512266,-0.0011313706636428833,22:26:24.445
0.7445356845855713,-0.16376666724681854,-9.780313491821289,0.21325945854187012,0.09803080558776855,1.0702881813049316,-0.002342462772503495,0.0026760625187307596,-0.0016607344150543213,22:26:24.455
0.7457937002182007,-0.1621534377336502,-9.767220497131348,0.20901012420654297,0.09461688995361328,1.0658955574035645,-0.003917887806892395,0.005065091419965029,-0.0015702098608016968,22:26:24.465
0.7511597871780396,-0.18016278743743896,-9.786872863769531,0.21184849739074707,0.09706497192382812,1.0659050941467285,-0.0005520880222320557,0.00041630121995694935,-0.0028837474528700113,22:26:24.475
0.7521366477012634,-0.17193910479545593,-9.770248413085938,0.21093153953552246,0.09511327743530273,1.065415859222412,-0.0022530555725097656,0.0007050112471915781,-0.003546476364135742,22:26:24.485
0.7296911478042603,-0.1732202023267746,-9.789995193481445,0.21332383155822754,0.09559869766235352,1.0688300132751465,-0.0040296465158462524,0.0029413029551506042,-0.0018659982597455382,22:26:24.495
0.7446984052658081,-0.1694433093070984,-9.767476081848145,0.20897746086120605,0.09608197212219238,1.0649223327636719,-0.0007815660792402923,0.0013647603336721659,-0.0010568652069196105,22:26:24.505
0.7410728335380554,-0.15038330852985382,-9.760163307189941,0.2128007411956787,0.09755444526672363,1.0663950443267822,0.0014232475077733397,0.003233738709241152,-0.0017475339118391275,22:26:24.515
0.7451159954071045,-0.14596328139305115,-9.777486801147461,0.2080211639404297,0.09508943557739258,1.0692970752716064,0.0016188250156119466,0.0019943341612815857,1.6950072676991113e-05,22:26:24.525
0.7388722896575928,-0.14636501669883728,-9.783720016479492,0.21081972122192383,0.09949493408203125,1.066873550415039,-0.002785399788990617,0.002310984069481492,-0.0010542571544647217,22:26:24.535
0.7411571145057678,-0.16466102004051208,-9.786484718322754,0.20752835273742676,0.09607648849487305,1.0649170875549316,-0.0008214266854338348,0.002002529799938202,-0.002394989365711808,22:26:24.546
0.7366605997085571,-0.1460670679807663,-9.778654098510742,0.21231460571289062,0.0975494384765625,1.067366361618042,-0.0003881752782035619,0.0025486573576927185,-0.0013325363397598267,22:26:24.556
0.7225056886672974,-0.14966866374015808,-9.768181800842285,0.20756244659423828,0.09461307525634766,1.065403938293457,-0.00310465763323009,0.003889762330800295,-0.0023823233786970377,22:26:24.566
0.7355369329452515,-0.1556757539510727,-9.779197692871094,0.2127676010131836,0.09851980209350586,1.0693132877349854,-0.0012986361980438232,0.0017361717764288187,-0.0005148351774550974,22:26:24.576
0.7389342188835144,-0.16225071251392365,-9.783361434936523,0.21135187149047852,0.0975487232208252,1.066389799118042,-0.0019967558328062296,0.0038465484976768494,-0.0016734005184844136,22:26:24.586
0.7441000938415527,-0.1616039276123047,-9.765000343322754,0.21185731887817383,0.09657454490661621,1.066878318786621,-0.0017218292923644185,0.0017723068594932556,-0.0009234994649887085,22:26:24.596
0.7343536019325256,-0.1738649159669876,-9.782966613769531,0.20995664596557617,0.09560012817382812,1.0644395351409912,-0.002780929207801819,0.0019168482394888997,-0.002162158489227295,22:26:24.606
0.7392022013664246,-0.16080671548843384,-9.779463768005371,0.2132554054260254,0.0985262393951416,1.0678555965423584,7.208437455119565e-05,0.0018449501367285848,-0.0010415911674499512,22:26:24.616
0.7421959042549133,-0.1616361141204834,-9.773101806640625,0.2094874382019043,0.09511256217956543,1.0639512538909912,-0.0003483146720100194,0.002119876444339752,-0.00020153821969870478,22:26:24.626
0.7442451119422913,-0.15072771906852722,-9.782502174377441,0.21084809303283691,0.0985250473022461,1.0654144287109375,-0.0009410083875991404,0.0014064833521842957,-0.002115219831466675,22:26:24.636
0.746958315372467,-0.16977237164974213,-9.756855964660645,0.21044540405273438,0.0951082706451416,1.0663871765136719,-0.0021182000637054443,0.0014705584617331624,-0.0025939196348190308,22:26:24.646
0.7396451234817505,-0.1680573970079422,-9.771392822265625,0.21282148361206055,0.09657669067382812,1.067368507385254,-0.00414140522480011,0.0027591362595558167,-0.0022184106055647135,22:26:24.656
0.747970461845398,-0.15772435069084167,-9.776849746704102,0.20896077156066895,0.09656476974487305,1.0663814544677734,-0.0008452684269286692,8.009374141693115e-06,-0.0018991531105712056,22:26:24.666
0.7493999600410461,-0.15761500597000122,-9.769750595092773,0.2122669219970703,0.09949898719787598,1.0673656463623047,-0.004422664642333984,0.001674331841059029,-7.674098742427304e-05,22:26:24.676
0.7384635210037231,-0.15314561128616333,-9.778116226196289,0.20807099342346191,0.09364151954650879,1.0649197101593018,0.0004453584551811218,0.0009430574136786163,-0.0005926936864852905,22:26:24.686
0.7454832196235657,-0.1477559357881546,-9.784477233886719,0.2132558822631836,0.09902644157409668,1.0639636516571045,-7.45058132451959e-05,0.00011194498074473813,-0.0019554048776626587,22:26:24.696
0.7380169034004211,-0.16620469093322754,-9.768898963928223,0.20853281021118164,0.09412145614624023,1.0678398609161377,0.00025834888219833374,-0.0003006309561897069,-0.002193450927734375,22:26:24.706
0.7344881892204285,-0.177718386054039,-9.767289161682129,0.21091341972351074,0.09559416770935059,1.067361831665039,-0.0017456711502745748,0.0018851831555366516,-0.0025950372219085693,22:26:24.716
0.7447226047515869,-0.15288984775543213,-9.780134201049805,0.20901155471801758,0.09461855888366699,1.0654091835021973,-0.0028878450393676758,0.004334188532084227,-0.0023648138158023357,22:26:24.726
0.7391252517700195,-0.15501151978969574,-9.77781867980957,0.21185564994812012,0.0965728759765625,1.0673649311065674,-0.00021979217126499861,-0.0005323440418578684,-0.0014334917068481445,22:26:24.736
0.7436825037002563,-0.16252964735031128,-9.761076927185059,0.2085421085357666,0.0941309928894043,1.0649211406707764,-0.0042025004513561726,0.0041970983147621155,-0.0017873944016173482,22:26:24.746
0.7408304810523987,-0.16157706081867218,-9.770108222961426,0.21330618858337402,0.09658002853393555,1.0668835639953613,-0.0005204231129027903,0.0008536502718925476,-0.0026829540729522705,22:26:24.756
0.7387820482254028,-0.16037391126155853,-9.778447151184082,0.2095024585723877,0.09462833404541016,1.0629785060882568,0.00019166618585586548,0.0014422462554648519,-0.0015079975128173828,22:26:24.766
0.7394508719444275,-0.15090957283973694,-9.776456832885742,0.21087932586669922,0.09705805778503418,1.0668745040893555,-0.0016592444153502584,0.0010350720258429646,-0.0010952353477478027,22:26:24.776
0.7293800115585327,-0.15928593277931213,-9.76708698272705,0.20902514457702637,0.09413266181945801,1.0649230480194092,-0.0020358713809400797,0.0025911256670951843,-0.0007309020147658885,22:26:24.786
0.7416480183601379,-0.15606074035167694,-9.777119636535645,0.21088552474975586,0.09706425666809082,1.0649287700653076,-0.0023819508496671915,0.003220327664166689,-0.00022575262119062245,22:26:24.796
0.752938985824585,-0.16233117878437042,-9.786494255065918,0.20996546745300293,0.09510970115661621,1.0654125213623047,-0.0013485553208738565,0.0024070965591818094,-0.0025384132750332355,22:26:24.806
0.7388122081756592,-0.1483014076948166,-9.770368576049805,0.21277379989624023,0.0985262393951416,1.0673675537109375,-0.0025510794948786497,0.0022610651794821024,-0.00027231877902522683,22:26:24.816
0.7398761510848999,-0.14248394966125488,-9.780333518981934,0.21047234535217285,0.09413695335388184,1.0654146671295166,-0.0014089049072936177,0.0028291717171669006,-0.0008400530205108225,22:26:24.826
0.7438268661499023,-0.1640009731054306,-9.770013809204102,0.21419906616210938,0.09950637817382812,1.0673725605010986,-0.0010225921869277954,0.0015327708097174764,-0.0011537225218489766,22:26:24.836
0.7434351444244385,-0.17328205704689026,-9.765088081359863,0.20757436752319336,0.09412574768066406,1.0654041767120361,-0.0012870877981185913,0.0019216911168769002,-0.0008087605237960815,22:26:24.846
0.7350825667381287,-0.17264828085899353,-9.778078079223633,0.21139240264892578,0.09609127044677734,1.0649311542510986,-0.0003829598717857152,0.0023094939533621073,-0.00174008309841156,22:26:24.856
0.7477182149887085,-0.17127232253551483,-9.79146671295166,0.20847058296203613,0.09705519676208496,1.0649199485778809,-0.0006046146736480296,0.001385621726512909,-0.0018637628527358174,22:26:24.866
0.7355642318725586,-0.16805870831012726,-9.766342163085938,0.21331548690795898,0.09658956527709961,1.06396484375,-0.0030606987420469522,0.0037169083952903748,-0.0010367482900619507,22:26:24.876
0.7362399101257324,-0.17127837240695953,-9.767744064331055,0.2080216407775879,0.09558963775634766,1.0654053688049316,-0.004469231236726046,0.0030102208256721497,-0.0008266420918516815,22:26:24.886
0.74880051612854,-0.15293405950069427,-9.762685775756836,0.2113487720489502,0.09754562377929688,1.0673627853393555,-0.004187226295471191,0.0017335638403892517,-0.001863017794676125,22:26:24.896
0.7466630339622498,-0.16596752405166626,-9.762547492980957,0.20843005180358887,0.09851264953613281,1.0663785934448242,-0.0005200505838729441,0.0011524185538291931,-0.0013973565073683858,22:26:24.906
0.7270203232765198,-0.1518888920545578,-9.773043632507324,0.21137261390686035,0.09657096862792969,1.0673632621765137,-0.001424923655577004,0.0013766810297966003,-0.00074729323387146,22:26:24.916
0.7397229671478271,-0.15072987973690033,-9.776342391967773,0.20854520797729492,0.09413433074951172,1.063948154449463,-0.0005379319190979004,0.001678802422247827,-0.0015310943126678467,22:26:24.926
0.7421741485595703,-0.15687954425811768,-9.787399291992188,0.21328377723693848,0.09755611419677734,1.066396713256836,-0.003192201489582658,0.0021683054510504007,-0.0020589679479599,22:26:24.936
0.7443879842758179,-0.15665870904922485,-9.775909423828125,0.20998048782348633,0.09462547302246094,1.0644397735595703,0.00016260893607977778,-0.00040009617805480957,-0.0005606561317108572,22:26:24.946
0.7513065934181213,-0.1524941474199295,-9.777328491210938,0.21328496932983398,0.09705758094787598,1.0698020458221436,2.2538008124683984e-05,0.0012258067727088928,-0.0008713454008102417,22:26:24.956
0.7333530187606812,-0.16608496010303497,-9.77656078338623,0.2095019817352295,0.09412837028503418,1.0668704509735107,0.0015752390027046204,-0.0017736110603436828,-0.0011399388313293457,22:26:24.966
0.7436431050300598,-0.1511465460062027,-9.768803596496582,0.215193510055542,0.09854006767272949,1.0659167766571045,-0.0011149793863296509,0.0007500872015953064,-0.0012356789084151387,22:26:24.976
0.7408661842346191,-0.16688521206378937,-9.77140998840332,0.20854473114013672,0.09363389015197754,1.0678400993347168,-0.003965571988373995,0.002818368375301361,-0.0018481166334822774,22:26:24.986
0.7525277137756348,-0.15595802664756775,-9.77013111114502,0.21331238746643066,0.09658622741699219,1.0649378299713135,-0.004673748277127743,0.004964508581906557,-0.0031504782382398844,22:26:24.996
0.7455841898918152,-0.17299340665340424,-9.775750160217285,0.2114250659942627,0.09462618827819824,1.0659043788909912,-0.0031873583793640137,0.004998036194592714,-0.0009957700967788696,22:26:25.006
0.7415933609008789,-0.174799382686615,-9.780234336853027,0.21132659912109375,0.09852218627929688,1.066875696182251,-0.0016700475243851542,0.0021001326385885477,-0.0009059906005859375,22:26:25.016
0.7404610514640808,-0.17310790717601776,-9.77202320098877,0.20898938179016113,0.09559464454650879,1.064922571182251,0.0003723427653312683,0.001109577831812203,-0.0019457193557173014,22:26:25.026
0.7387489080429077,-0.16382566094398499,-9.777290344238281,0.20986700057983398,0.09900546073913574,1.0663838386535645,-0.001642853138037026,0.0051150089129805565,-0.0021524722687900066,22:26:25.036
0.7440570592880249,-0.16717872023582458,-9.76379680633545,0.21145915985107422,0.09316229820251465,1.0663917064666748,-0.002662837505340576,0.0027639789041131735,-0.00275857700034976,22:26:25.046
0.7262911796569824,-0.15844210982322693,-9.784208297729492,0.21282625198364258,0.09658145904541016,1.0659089088439941,-0.003205240471288562,0.0032996765803545713,-0.0009927898645401,22:26:25.056
0.7535886168479919,-0.1698460876941681,-9.78359603881836,0.20898771286010742,0.09559321403503418,1.0654089450836182,-0.005338342394679785,0.0043859705328941345,-0.0007342547760345042,22:26:25.066
0.7352815866470337,-0.15118762850761414,-9.761639595031738,0.21181106567382812,0.0985255241394043,1.0663909912109375,-0.0015702098608016968,3.259628647356294e-05,-0.0009804965229704976,22:26:25.077
0.7339146137237549,-0.15535283088684082,-9.779908180236816,0.20757436752319336,0.09412574768066406,1.0654041767120361,-0.003327056998386979,0.002945028245449066,-0.0004306435876060277,22:26:25.087
0.7368808388710022,-0.1600354164838791,-9.798256874084473,0.2137773036956787,0.09706926345825195,1.066885232925415,-0.0008370729046873748,0.0020513313356786966,-0.001416727900505066,22:26:25.097
0.7532573342323303,-0.16303667426109314,-9.771248817443848,0.20900845527648926,0.09461522102355957,1.0663821697235107,-0.002808123826980591,0.002525932854041457,-0.0007502734661102295,22:26:25.107
0.750737726688385,-0.14268532395362854,-9.787201881408691,0.21278882026672363,0.09804177284240723,1.0663948059082031,-0.002104789251461625,0.0028463080525398254,-0.0006463378667831421,22:26:25.117
0.7305314540863037,-0.16486144065856934,-9.760435104370117,0.20852971076965332,0.09411835670471191,1.0688128471374512,-0.0038411470595747232,0.003918446600437164,-0.0023998317774385214,22:26:25.127
0.74167400598526,-0.17742043733596802,-9.763697624206543,0.21330618858337402,0.09658002853393555,1.0668835639953613,-0.0004898757324554026,0.00047776850988157094,-0.001418963074684143,22:26:25.137
0.7357699871063232,-0.17315906286239624,-9.771038055419922,0.2094707489013672,0.09559512138366699,1.0654106140136719,-0.0019673260394483805,0.0019429251551628113,0.0004196539812255651,22:26:25.147
0.7384203672409058,-0.16986306011676788,-9.771231651306152,0.21181988716125488,0.09803485870361328,1.06736421585083,-0.0012382868444547057,0.0013446435332298279,-0.0011362137738615274,22:26:25.157
0.7408119440078735,-0.16523824632167816,-9.778900146484375,0.20940542221069336,0.0985257625579834,1.0634632110595703,-0.00016130506992340088,0.0031335281673818827,-0.0007875263690948486,22:26:25.167
0.7467125654220581,-0.17321962118148804,-9.77518081665039,0.21133995056152344,0.09803605079650879,1.066389560699463,-0.000543147383723408,0.002435781294479966,-0.0021263957023620605,22:26:25.177
0.761757493019104,-0.16294348239898682,-9.778642654418945,0.2094588279724121,0.09608244895935059,1.0654103755950928,-0.0046323989517986774,0.0025080516934394836,-0.0020515176001936197,22:26:25.187
0.7534129619598389,-0.17225269973278046,-9.764528274536133,0.21235346794128418,0.09609031677246094,1.0663940906524658,0.0004762783064506948,0.0030266123358160257,-0.000470131664769724,22:26:25.197
0.737761914730072,-0.1607535481452942,-9.76937198638916,0.20951533317565918,0.0936422348022461,1.0663843154907227,0.0006018206477165222,0.0017387795960530639,-0.0015296044293791056,22:26:25.207
0.7351744174957275,-0.1656154841184616,-9.770854949951172,0.21236133575439453,0.09609842300415039,1.0639617443084717,-0.0013589859008789062,0.002352335024625063,-0.0008545817690901458,22:26:25.217
0.7483368515968323,-0.15100792050361633,-9.767690658569336,0.2080516815185547,0.09462118148803711,1.0634596347808838,-0.0008728355751372874,0.003694184124469757,-0.002206117147579789,22:26:25.227
0.75179123878479,-0.15097172558307648,-9.782496452331543,0.2123265266418457,0.0970621109008789,1.067366600036621,-0.0032242387533187866,0.0066040088422596455,-0.0009741634712554514,22:26:25.237
0.7473244071006775,-0.15752631425857544,-9.784795761108398,0.20952153205871582,0.09364867210388184,1.0644383430480957,-0.0006545335054397583,0.0023191797081381083,-0.0005755573511123657,22:26:25.247
0.7386768460273743,-0.1476966142654419,-9.784640312194824,0.2128303050994873,0.09608602523803711,1.0683414936065674,-0.0030316412448883057,0.0011472031474113464,-0.002305209869518876,22:26:25.257
0.742933452129364,-0.15219922363758087,-9.768706321716309,0.2075672149658203,0.09461784362792969,1.0639445781707764,-0.0010143965482711792,0.0018438325496390462,-0.0012706962879747152,22:26:25.267
0.7355996370315552,-0.16426874697208405,-9.785745620727539,0.21671676635742188,0.09512448310852051,1.0688424110412598,0.000275485246675089,0.000957958516664803,-0.0014599412679672241,22:26:25.277
0.743443489074707,-0.17642848193645477,-9.779107093811035,0.2114551067352295,0.0936577320098877,1.0639591217041016,-0.00011883677507285029,0.0033127146307379007,-0.002617761492729187,22:26:25.287
0.7320306301116943,-0.16656531393527985,-9.768258094787598,0.21429753303527832,0.09561038017272949,1.0664012432098389,0.0005999578861519694,0.002423115074634552,-0.0022869554813951254,22:26:25.297
0.7335834503173828,-0.1646658182144165,-9.772407531738281,0.2099297046661377,0.0965719223022461,1.0654120445251465,-0.002006441354751587,0.002957321936264634,-0.001434236764907837,22:26:25.307
0.7441146373748779,-0.15030790865421295,-9.788839340209961,0.2103278636932373,0.09998369216918945,1.0658986568450928,-0.0006251037120819092,0.0020259993616491556,-0.0018041582079604268,22:26:25.317
0.7447831630706787,-0.15827813744544983,-9.777753829956055,0.20944857597351074,0.09657144546508789,1.0649237632751465,-0.0014364720555022359,0.003639422357082367,-0.000619143305812031,22:26:25.327
0.7431073784828186,-0.1548386812210083,-9.769831657409668,0.21278738975524902,0.09804034233093262,1.0668811798095703,-0.001880526659078896,0.0022822993341833353,-0.0012461096048355103,22:26:25.337
0.74567711353302,-0.17158243060112,-9.768548965454102,0.2084958553314209,0.09608197212219238,1.0644338130950928,-0.000697001873049885,0.0013688576873391867,-0.001459568622522056,22:26:25.347
0.7440627813339233,-0.16284696757793427,-9.772176742553711,0.21470880508422852,0.09853672981262207,1.066401720046997,-0.0005479902611114085,0.0024771317839622498,-0.0014647841453552246,22:26:25.357
0.7485172748565674,-0.16211672127246857,-9.791162490844727,0.20756244659423828,0.09461307525634766,1.065403938293457,-0.0019446015357971191,0.0015733764739707112,-0.0018984079360961914,22:26:25.367
0.7568613886833191,-0.1465940624475479,-9.77593994140625,0.2123105525970459,0.09804463386535645,1.0649337768554688,-0.004646554589271545,0.0019995495676994324,-0.0018808994209393859,22:26:25.377
0.7551718354225159,-0.1656048595905304,-9.772541046142578,0.20804405212402344,0.09461331367492676,1.065891981124878,-0.0021848829928785563,0.0018225982785224915,-0.003387034172192216,22:26:25.387
0.7490553855895996,-0.15929411351680756,-9.780054092407227,0.21039319038391113,0.09705305099487305,1.0678458213806152,-0.0054854899644851685,0.0030005353037267923,-0.0014934689970687032,22:26:25.397
0.7365627288818359,-0.15166893601417542,-9.781124114990234,0.20952272415161133,0.09315013885498047,1.0678439140319824,-0.006282702088356018,0.0026857482735067606,-0.0024922192096710205,22:26:25.407
0.73585444688797,-0.15846768021583557,-9.743287086486816,0.21228361129760742,0.09901642799377441,1.065906047821045,-0.002687424421310425,0.0020386651158332825,-0.0021111222449690104,22:26:25.417
0.7378859519958496,-0.16396968066692352,-9.775697708129883,0.20849847793579102,0.09558510780334473,1.0673530101776123,-0.0024683773517608643,0.002970732981339097,2.5890767574310303e-05,22:26:25.427
0.7531269192695618,-0.16618755459785461,-9.784183502197266,0.21184110641479492,0.09755706787109375,1.0644454956054688,-0.0060778115876019,0.0024607405066490173,-0.0012557953596115112,22:26:25.437
0.735274612903595,-0.18327955901622772,-9.7897367477417,0.2080082893371582,0.09607529640197754,1.0658915042877197,-0.002660229802131653,0.0029275191482156515,-0.0017032027244567871,22:26:25.447
0.7369197607040405,-0.1501268893480301,-9.775498390197754,0.21080732345581055,0.09948205947875977,1.0707652568817139,-0.0009607524261809886,0.0014627353521063924,-0.002529844641685486,22:26:25.457
0.7389126420021057,-0.14766629040241241,-9.789962768554688,0.20949268341064453,0.09411859512329102,1.069789171218872,-0.0023327767848968506,0.005071424413472414,-0.0027354806661605835,22:26:25.467
0.7407622337341309,-0.14985179901123047,-9.776561737060547,0.2142348289489746,0.09804415702819824,1.0673730373382568,-0.005041063297539949,0.004328974522650242,-0.001092627877369523,22:26:25.477
0.7322392463684082,-0.15773946046829224,-9.776814460754395,0.20895671844482422,0.0970602035522461,1.0639488697052002,-0.0046897693537175655,0.0040570273995399475,-0.003080815775319934,22:26:25.487
0.7362226247787476,-0.16088278591632843,-9.777827262878418,0.21373844146728516,0.09852814674377441,1.0678575038909912,-0.00035203996230848134,0.0006763265118934214,-0.0020854175090789795,22:26:25.497
0.7381157279014587,-0.14939507842063904,-9.756205558776855,0.20703768730163574,0.09606671333312988,1.067347526550293,-0.0025216490030288696,0.001526065287180245,-0.001123175024986267,22:26:25.507
0.7374415397644043,-0.16435764729976654,-9.786757469177246,0.21378183364868164,0.09707403182983398,1.0654258728027344,-0.0038165601436048746,0.003592856228351593,-0.0005662440089508891,22:26:25.517
0.751791775226593,-0.16614478826522827,-9.768774032592773,0.21047544479370117,0.09414005279541016,1.0644416809082031,-0.0033054500818252563,0.00519994692876935,-0.001866370439529419,22:26:25.527
0.7441214323043823,-0.15993204712867737,-9.775885581970215,0.21139192581176758,0.09559130668640137,1.0688230991363525,-0.003621354466304183,0.0020449983421713114,-0.0011701136827468872,22:26:25.538
0.7488301992416382,-0.15615035593509674,-9.757362365722656,0.2094707489013672,0.09559512138366699,1.0654106140136719,-0.0018663702066987753,0.002241693204268813,-0.0006064772605895996,22:26:25.548
0.7330182790756226,-0.15607872605323792,-9.777047157287598,0.2128288745880127,0.0960843563079834,1.0688281059265137,-0.0016201286343857646,0.0016877427697181702,-0.00143162882886827,22:26:25.558
0.7385392785072327,-0.1693708300590515,-9.759563446044922,0.21237730979919434,0.09511566162109375,1.066394329071045,-0.0005330890999175608,0.0017831104341894388,-0.00045113274245522916,22:26:25.568
0.7418316602706909,-0.17527243494987488,-9.770657539367676,0.2103557586669922,0.09851384162902832,1.0683314800262451,-0.0013731420040130615,0.0017268583178520203,-0.00133141886908561,22:26:25.578
0.7397250533103943,-0.172712504863739,-9.776427268981934,0.21044397354125977,0.09510684013366699,1.066873550415039,-0.0024199485778808594,0.005245767999440432,-0.000772997853346169,22:26:25.588
0.742852509021759,-0.16180263459682465,-9.785066604614258,0.21080780029296875,0.09998226165771484,1.06687331199646,-0.0006590038537979126,0.0011125580640509725,-0.0025685878936201334,22:26:25.598
0.7487796545028687,-0.16952550411224365,-9.77210521697998,0.2085404396057129,0.09412956237792969,1.0654075145721436,-0.0027515001129359007,0.0036982824094593525,-0.0025726857129484415,22:26:25.608
0.7505735158920288,-0.16998350620269775,-9.776456832885742,0.21184992790222168,0.09706664085388184,1.0654187202453613,-0.0007573515176773071,0.002370215952396393,-0.0016514213057234883,22:26:25.618
0.7415270209312439,-0.1531657576560974,-9.77155590057373,0.20705342292785645,0.09608268737792969,1.0624828338623047,-0.001317635178565979,0.0010425226064398885,-0.0019691884517669678,22:26:25.628
0.7343398332595825,-0.14974085986614227,-9.787353515625,0.21231770515441895,0.09755253791809082,1.0663933753967285,-0.001134723424911499,0.003140979213640094,-0.0008273871499113739,22:26:25.638
0.7366328239440918,-0.15189999341964722,-9.768420219421387,0.2109689712524414,0.09365248680114746,1.0649302005767822,8.381903171539307e-06,0.000790320395026356,-0.0020623207092285156,22:26:25.648
0.7282528281211853,-0.15758192539215088,-9.763365745544434,0.21321702003479004,0.10048508644104004,1.0649361610412598,-0.000605359731707722,0.0017607585759833455,-0.0026419758796691895,22:26:25.658
0.7490452527999878,-0.17477481067180634,-9.771862983703613,0.21135258674621582,0.09804892539978027,1.062497854232788,-0.0006552786217071116,0.0013248994946479797,-0.0007245689048431814,22:26:25.668
0.7541805505752563,-0.1679045855998993,-9.775639533996582,0.21324658393859863,0.09901690483093262,1.0668823719024658,0.0005727633833885193,0.0004956499324180186,-0.0013273210497573018,22:26:25.678
0.7315996289253235,-0.1683066189289093,-9.782541275024414,0.20996665954589844,0.09461116790771484,1.0688180923461914,-0.004208460450172424,0.0025840478483587503,-0.002253428101539612,22:26:25.688
0.7544580698013306,-0.17240040004253387,-9.780240058898926,0.2112746238708496,0.1009669303894043,1.0644423961639404,-0.0014901161193847656,0.0019466506782919168,-0.0004451722779776901,22:26:25.698
0.7479508519172668,-0.16174988448619843,-9.768362045288086,0.20807814598083496,0.09314942359924316,1.0663793087005615,-0.003648549085482955,0.003714300226420164,-0.0016581265954300761,22:26:25.708
0.749783992767334,-0.15318748354911804,-9.778489112854004,0.21470308303833008,0.0990304946899414,1.064455509185791,-0.002530961763113737,0.0027721745427697897,-0.001497194287367165,22:26:25.718
0.7542546987533569,-0.16257935762405396,-9.774921417236328,0.20996713638305664,0.09511113166809082,1.0649261474609375,-0.003233180148527026,0.003341399598866701,-0.0005424024420790374,22:26:25.728
0.7379875779151917,-0.1601463258266449,-9.779109001159668,0.21088957786560059,0.09656906127929688,1.0673613548278809,-0.0003192574076820165,0.002279691630974412,-0.001346692442893982,22:26:25.738
0.7494010925292969,-0.16429470479488373,-9.766727447509766,0.20855093002319336,0.09364032745361328,1.0658941268920898,-4.284084207029082e-05,0.002389959990978241,-0.0017639250727370381,22:26:25.748
0.7417693734169006,-0.16238760948181152,-9.783097267150879,0.2123432159423828,0.09657955169677734,1.0659072399139404,-0.0010944901732727885,0.003123469650745392,6.79865333950147e-05,22:26:25.758
0.7581399083137512,-0.1664266735315323,-9.771242141723633,0.2085103988647461,0.09509778022766113,1.0673530101776123,-0.001372397062368691,0.0016709791962057352,-0.001366436597891152,22:26:25.768
0.74489426612854,-0.15378957986831665,-9.780779838562012,0.21087932586669922,0.09705805778503418,1.0668745040893555,-0.0009410083875991404,0.0005068258033134043,-0.0007607042789459229,22:26:25.778
0.7442282438278198,-0.15383805334568024,-9.762847900390625,0.21094036102294922,0.09462261199951172,1.0663890838623047,-0.0033054503146559,0.002292357385158539,-0.0008951874333433807,22:26:25.788
0.737009584903717,-0.15109018981456757,-9.772331237792969,0.21232962608337402,0.09706521034240723,1.0663936138153076,0.0002140179421985522,0.0023016706109046936,0.0001756474084686488,22:26:25.798
0.7302595376968384,-0.1737360805273056,-9.773900032043457,0.20847058296203613,0.09705519676208496,1.0649199485778809,-0.0027526170015335083,0.003585405880585313,-0.0014565885066986084,22:26:25.808
0.7291582226753235,-0.1725006401538849,-9.757250785827637,0.21376848220825195,0.09755969047546387,1.0659120082855225,0.00032577666570432484,0.001641176757402718,-0.0020664180628955364,22:26:25.818
0.7369595766067505,-0.16496790945529938,-9.762053489685059,0.20950651168823242,0.09413313865661621,1.06541109085083,-0.0010941177606582642,0.0019578260835260153,-0.000856444239616394,22:26:25.828
0.7534775733947754,-0.1552262306213379,-9.771391868591309,0.21229863166809082,0.09853219985961914,1.0649335384368896,-0.001994892954826355,0.002343766624107957,-0.000517815409693867,22:26:25.838
0.7263402342796326,-0.16866633296012878,-9.777911186218262,0.20809316635131836,0.09266543388366699,1.0654065608978271,-0.0017568471375852823,0.0018315393244847655,-0.002186000347137451,22:26:25.848
0.7396292090415955,-0.16226992011070251,-9.7791109085083,0.21276044845581055,0.09901189804077148,1.0678536891937256,-0.0011567026376724243,0.0013301149010658264,-0.001329556223936379,22:26:25.858
0.7395411729812622,-0.1587131768465042,-9.784852981567383,0.20948266983032227,0.0951077938079834,1.0654106140136719,-6.332993962132605e-06,0.0007407739758491516,-0.0010013581486418843,22:26:25.868
0.7350931167602539,-0.16510313749313354,-9.773443222045898,0.2137296199798584,0.09901881217956543,1.0668842792510986,-0.0025492163840681314,0.0015279280487447977,-0.0003945083008147776,22:26:25.878
0.7368271350860596,-0.15953169763088226,-9.75049877166748,0.2100074291229248,0.09365367889404297,1.063467264175415,-0.000718235969543457,0.0016378239961341023,-0.0010311603546142578,22:26:25.888
0.7442906498908997,-0.1659373790025711,-9.76666259765625,0.21279454231262207,0.09754824638366699,1.06834077835083,-0.0017967077437788248,0.002783350646495819,-0.002311170333996415,22:26:25.898
0.7519821524620056,-0.1652105301618576,-9.78493881225586,0.20705580711364746,0.09558582305908203,1.0654017925262451,-0.00020377342298161238,0.0037314374931156635,-0.0015299770748242736,22:26:25.908
0.7645399570465088,-0.15858197212219238,-9.77206039428711,0.2132568359375,0.09852790832519531,1.0673692226409912,0.0015689062420278788,0.002139248186722398,-0.0016238543903455138,22:26:25.918
0.7500231266021729,-0.16103379428386688,-9.775284767150879,0.20950651168823242,0.09413313865661621,1.06541109085083,-0.0035144391003996134,0.0034438446164131165,-0.0018890948267653584,22:26:25.928
0.7364001274108887,-0.15492641925811768,-9.782292366027832,0.21324920654296875,0.09851980209350586,1.0698013305664062,-0.0008244068012572825,0.001536123570986092,-0.0009134411811828613,22:26:25.938
0.7483715415000916,-0.16800802946090698,-9.77959156036377,0.2109062671661377,0.09608626365661621,1.0659019947052002,-0.0022143127862364054,0.0011024996638298035,-0.0028647484723478556,22:26:25.948
0.7500790953636169,-0.16870729625225067,-9.76422119140625,0.21090149879455566,0.09608149528503418,1.06736159324646,-0.004288925789296627,0.0029822809156030416,-0.001868232968263328,22:26:25.958
0.7401554584503174,-0.16587162017822266,-9.768245697021484,0.20850157737731934,0.09558820724487305,1.0663800239562988,-0.005166232120245695,0.002310610841959715,-0.0021681191865354776,22:26:25.968
0.7439215779304504,-0.17412474751472473,-9.771363258361816,0.21232032775878906,0.09705567359924316,1.069312334060669,-0.002499670023098588,0.003289618296548724,-0.0013899058103561401,22:26:25.978
0.7378249168395996,-0.16821299493312836,-9.771306991577148,0.20994901657104492,0.09559226036071777,1.0668718814849854,-0.0016357749700546265,0.0017749146791175008,-0.0013958662748336792,22:26:25.988
0.7386643290519714,-0.1543261855840683,-9.770913124084473,0.21181106567382812,0.0985255241394043,1.0663909912109375,0.0002710148983169347,0.002985633909702301,-0.0014550983905792236,22:26:25.998
0.7321349382400513,-0.16613474488258362,-9.772184371948242,0.20757436752319336,0.09412574768066406,1.0654041767120361,-0.0006005168543197215,0.003069452941417694,-0.0019319356651976705,22:26:26.008
0.7335433959960938,-0.17454035580158234,-9.77132511138916,0.2117929458618164,0.09900665283203125,1.0683364868164062,-0.000462308555142954,0.003145821625366807,-0.0019587576389312744,22:26:26.018
0.7405175566673279,-0.16273753345012665,-9.779006004333496,0.20804405212402344,0.09461331367492676,1.065891981124878,-0.0020228326320648193,0.002886913949623704,-0.003207102417945862,22:26:26.028
0.7409887313842773,-0.1609952747821808,-9.786738395690918,0.21277856826782227,0.09853100776672363,1.0659079551696777,0.0009307638974860311,0.0019302595173940063,-0.002216920955106616,22:26:26.038
0.7401795983314514,-0.1421874463558197,-9.78443431854248,0.21047711372375488,0.09414172172546387,1.063955307006836,-0.002250075340270996,0.0030433761421591043,-0.002392008900642395,22:26:26.048
0.7403216361999512,-0.15606223046779633,-9.780847549438477,0.2132885456085205,0.09756088256835938,1.0649373531341553,-0.0013068319531157613,0.0019161031814292073,0.0002777203917503357,22:26:26.058
0.752345860004425,-0.16743820905685425,-9.78166675567627,0.2089996337890625,0.09510588645935059,1.0654089450836182,0.0005202367901802063,0.004278682637959719,-0.0016413629055023193,22:26:26.069
0.7435480952262878,-0.15565457940101624,-9.780120849609375,0.2108745574951172,0.09705328941345215,1.0683338642120361,-0.0033020975533872843,0.005508400499820709,-0.0010523945093154907,22:26:26.079
0.7330194115638733,-0.14966189861297607,-9.776284217834473,0.21042895317077637,0.09559082984924316,1.0678465366363525,-0.002618506085127592,0.0044541428796947,-0.0007737426785752177,22:26:26.089
0.7354419827461243,-0.1689327210187912,-9.764437675476074,0.21137571334838867,0.09657406806945801,1.0663902759552002,-0.002604350447654724,0.002332217525690794,-0.001724809524603188,22:26:26.099
0.7384394407272339,-0.17530186474323273,-9.774022102355957,0.21105241775512695,0.0902409553527832,1.0649316310882568,-0.0012271107407286763,0.004442594945430756,-0.0025089832488447428,22:26:26.109
0.7313594222068787,-0.15770727396011353,-9.77628231048584,0.21376371383666992,0.09755492210388184,1.0673716068267822,0.0003458932042121887,0.001633726409636438,0.00017788262630347162,22:26:26.119
0.7427773475646973,-0.15618251264095306,-9.748822212219238,0.20899653434753418,0.09510254859924316,1.0663819313049316,-0.0007834285497665405,0.002624280983582139,-0.0016920268535614014,22:26:26.129
0.7479363083839417,-0.17955906689167023,-9.783873558044434,0.21229863166809082,0.09853219985961914,1.0649335384368896,-0.0015094875125214458,0.0014843418030068278,-0.0017624348402023315,22:26:26.139
0.7486608624458313,-0.16821815073490143,-9.771954536437988,0.20901775360107422,0.09462475776672363,1.0634632110595703,-0.0028245151042938232,0.004692189861088991,-0.0018872320652008057,22:26:26.149
0.7474592924118042,-0.15725861489772797,-9.781230926513672,0.2142348289489746,0.09804415702819824,1.0673730373382568,-0.00021569427917711437,0.0029535966459661722,-0.0014711172552779317,22:26:26.159
0.7546298503875732,-0.1654033660888672,-9.770588874816895,0.20708847045898438,0.09412050247192383,1.0663752555847168,-0.00030286613036878407,0.0025076791644096375,0.0008253382402472198,22:26:26.169
0.7328543663024902,-0.1659238636493683,-9.779431343078613,0.21322989463806152,0.09949946403503418,1.0683417320251465,-0.0003073364496231079,0.003107451368123293,-0.0020753599237650633,22:26:26.179
0.7395022511482239,-0.15338391065597534,-9.756402969360352,0.20753240585327148,0.0955812931060791,1.0673496723175049,0.002440251177176833,-0.0004511326551437378,-0.0011216850252822042,22:26:26.189
0.7441803812980652,-0.1505557894706726,-9.77133560180664,0.21279621124267578,0.0975496768951416,1.067854404449463,-0.001502036931924522,0.0019079074263572693,-0.0018451360519975424,22:26:26.199
0.7486112117767334,-0.15435993671417236,-9.78192138671875,0.2099473476409912,0.09559059143066406,1.0673584938049316,0.0006737188086844981,0.0029841437935829163,-0.0006023794994689524,22:26:26.209
0.7433654069900513,-0.15399041771888733,-9.780920028686523,0.21231627464294434,0.09755110740661621,1.0668797492980957,0.002376548945903778,-0.0003993511199951172,-0.0021602960769087076,22:26:26.219
0.7424784898757935,-0.1673136055469513,-9.77151870727539,0.20853900909423828,0.09412789344787598,1.0658938884735107,-0.0005576760158874094,0.0027125701308250427,-0.0026453284081071615,22:26:26.229
0.748023509979248,-0.17272531986236572,-9.776597023010254,0.21327924728393555,0.09755134582519531,1.0678560733795166,0.0015782193513587117,0.0006543472409248352,-0.002699717879295349,22:26:26.239
0.7408890128135681,-0.1638084352016449,-9.78611946105957,0.21000289916992188,0.09364891052246094,1.0649268627166748,-0.0017486514989286661,0.004123338032513857,-0.003052875865250826,22:26:26.249
0.73089599609375,-0.17295758426189423,-9.782831192016602,0.21276497840881348,0.09901666641235352,1.066394329071045,-0.0015582889318466187,0.003917701542377472,-0.0024132432881742716,22:26:26.259
0.7478886246681213,-0.16143707931041718,-9.783463478088379,0.20847368240356445,0.09705853462219238,1.0639469623565674,-0.002104416722431779,0.002954341471195221,-0.001442432519979775,22:26:26.269
0.7415326237678528,-0.1704852133989334,-9.774539947509766,0.21181988716125488,0.09803485870361328,1.06736421585083,-0.0015791505575180054,0.0021466987673193216,-0.0011537225218489766,22:26:26.279
0.7268459796905518,-0.16989265382289886,-9.764409065246582,0.20996546745300293,0.09510970115661621,1.0654125213623047,-0.0034734606742858887,0.002507679397240281,-0.00151023268699646,22:26:26.289
0.7398654818534851,-0.16301016509532928,-9.786362648010254,0.21231937408447266,0.09755420684814453,1.0659067630767822,-0.0014059244422242045,0.004207902122288942,-0.0027008354663848877,22:26:26.299
0.7368048429489136,-0.162891685962677,-9.7632417678833,0.21045899391174316,0.09462261199951172,1.0659008026123047,-0.0016655776416882873,0.001079030567780137,-0.0024508691858500242,22:26:26.309
0.7412842512130737,-0.16836139559745789,-9.78248119354248,0.2098846435546875,0.09802436828613281,1.0683300495147705,-0.001485273358412087,0.0027624890208244324,-0.0018250197172164917,22:26:26.319
0.7501877546310425,-0.14276406168937683,-9.762075424194336,0.2109389305114746,0.09462118148803711,1.0668754577636719,-0.003980100620537996,0.0027740374207496643,-0.00077672308543697,22:26:26.329
0.7428152561187744,-0.1527215987443924,-9.77268123626709,0.211836576461792,0.09755229949951172,1.0659048557281494,-0.0013966113328933716,0.002718903124332428,-0.0005349517450667918,22:26:26.339
0.7334086894989014,-0.1582522690296173,-9.776997566223145,0.20711708068847656,0.09315037727355957,1.0649163722991943,-0.003831088775768876,0.0024357810616493225,-0.0023037197533994913,22:26:26.349
0.7389997243881226,-0.17029964923858643,-9.783098220825195,0.21227741241455078,0.09900999069213867,1.0678520202636719,7.357449067058042e-05,0.00197533518075943,-0.0005386769771575928,22:26:26.359
0.728628396987915,-0.1526258885860443,-9.76111125946045,0.20850634574890137,0.09559297561645508,1.0649206638336182,-0.003989041317254305,0.004292838275432587,-0.0010620803805068135,22:26:26.369
0.7281622886657715,-0.17124827206134796,-9.777077674865723,0.2122938632965088,0.09852743148803711,1.0663928985595703,-0.0023510309401899576,0.0002874061756301671,-0.002244114875793457,22:26:26.379
0.7501179575920105,-0.16868449747562408,-9.781935691833496,0.21001625061035156,0.09316325187683105,1.0644404888153076,0.000515766441822052,0.001796893891878426,-0.001512095332145691,22:26:26.389
0.7346318960189819,-0.16029182076454163,-9.759397506713867,0.2127976417541504,0.09755134582519531,1.0673680305480957,0.0010510905412957072,0.0011855734046548605,-0.0013835728168487549,22:26:26.399
0.7298904657363892,-0.15634088218212128,-9.771926879882812,0.21192312240600586,0.09414386749267578,1.0649335384368896,-0.0028241430409252644,0.003676675958558917,-4.209578764857724e-05,22:26:26.409
0.7529076337814331,-0.16971421241760254,-9.772875785827637,0.21322369575500488,0.09949302673339844,1.0702877044677734,-0.0010889023542404175,0.002195127308368683,0.0001402571942890063,22:26:26.419
0.7242522239685059,-0.15587802231311798,-9.777240753173828,0.2089836597442627,0.09608840942382812,1.062976360321045,0.0012507662177085876,0.0016340987058356404,-0.0020757317543029785,22:26:26.429
0.7337568998336792,-0.15675251185894012,-9.766185760498047,0.21039319038391113,0.09705305099487305,1.0678458213806152,-0.00012815000081900507,0.0031696632504463196,-0.00015459954738616943,22:26:26.439
0.75399249792099,-0.1656043976545334,-9.780770301818848,0.2090163230895996,0.09462332725524902,1.0639498233795166,-0.0038530684541910887,0.003139115869998932,-0.0015534464037045836,22:26:26.449
0.7473903894424438,-0.16942359507083893,-9.76750659942627,0.2108299732208252,0.09900593757629395,1.0673601627349854,-0.0028446319047361612,0.003151782089844346,-0.002250075340270996,22:26:26.459
0.7573733925819397,-0.1636948138475418,-9.772159576416016,0.2089982032775879,0.09510421752929688,1.0658953189849854,-0.0016409903764724731,0.00023301692272070795,-0.0013083219528198242,22:26:26.469
0.7520648837089539,-0.17245909571647644,-9.771553039550781,0.21229076385498047,0.09852433204650879,1.0673658847808838,-0.002074986696243286,0.004014932084828615,-0.0024978069122880697,22:26:26.479
0.7576301693916321,-0.15701141953468323,-9.772639274597168,0.2104501724243164,0.09511303901672363,1.0649278163909912,-0.001090019941329956,-0.000314414530294016,-0.0015601515769958496,22:26:26.489
0.7535890936851501,-0.14389213919639587,-9.777490615844727,0.21134161949157715,0.0980377197265625,1.0659029483795166,-0.0034343451261520386,0.004021264612674713,-0.0012412668438628316,22:26:26.499
0.7369014620780945,-0.15629446506500244,-9.776985168457031,0.20759987831115723,0.09315228462219238,1.0649182796478271,-0.0009391457424499094,0.0026805326342582703,-0.0022109600249677896,22:26:26.509
0.7551589012145996,-0.16535289585590363,-9.782190322875977,0.21376490592956543,0.09705638885498047,1.0707769393920898,-0.0035312031395733356,0.0045632957480847836,-0.0027108939830213785,22:26:26.519
0.7462031841278076,-0.15862566232681274,-9.782815933227539,0.21096324920654297,0.0941464900970459,1.0629839897155762,-0.004407391417771578,0.00405479222536087,-0.002151355380192399,22:26:26.529
0.7306556105613708,-0.16135838627815247,-9.766922950744629,0.2118215560913086,0.09803652763366699,1.0668776035308838,-0.0015128403902053833,0.003020651638507843,-0.0006251037702895701,22:26:26.539
0.7403215169906616,-0.1682438850402832,-9.774587631225586,0.20810270309448242,0.09267497062683105,1.0624878406524658,-0.0012453645467758179,0.00043418261338956654,-0.00075511634349823,22:26:26.549
0.7371143698692322,-0.15768805146217346,-9.781803131103516,0.21135187149047852,0.0975487232208252,1.066389799118042,0.0008521601557731628,0.0011572615476325154,-0.0010665504960343242,22:26:26.559
0.7374253869056702,-0.15509603917598724,-9.77585506439209,0.20758485794067383,0.09363651275634766,1.0658907890319824,-0.0034637751523405313,0.0036681070923805237,-0.0011280180187895894,22:26:26.569
0.7444989681243896,-0.15658000111579895,-9.776469230651855,0.2127697467803955,0.09902143478393555,1.0649349689483643,-0.0035513194743543863,0.002084858948364854,1.210719347000122e-05,22:26:26.579
0.763593316078186,-0.15841986238956451,-9.77491283416748,0.21094036102294922,0.09462261199951172,1.0663890838623047,-0.0033605846110731363,0.0037183985114097595,-0.0026896593626588583,22:26:26.589
0.7454823851585388,-0.1721186339855194,-9.800731658935547,0.2122819423675537,0.0990147590637207,1.0663926601409912,-0.004248321987688541,0.0042343526147305965,-0.0019438568269833922,22:26:26.600
0.7353299260139465,-0.1716276854276657,-9.765694618225098,0.2085404396057129,0.09412956237792969,1.0654075145721436,-0.003099814523011446,0.0034457079600542784,-0.0015102329198271036,22:26:26.610
0.7474321722984314,-0.16183418035507202,-9.776750564575195,0.21326875686645508,0.09804034233093262,1.0673694610595703,-0.00021234156156424433,0.0019883739296346903,-0.0025879591703414917,22:26:26.620
0.7334511876106262,-0.16443540155887604,-9.781609535217285,0.20902514457702637,0.09413266181945801,1.0649230480194092,-0.004467741120606661,0.002892873715609312,-0.0008095056400634348,22:26:26.630
0.7646142244338989,-0.15016542375087738,-9.764755249023438,0.21188735961914062,0.09560585021972656,1.0649330615997314,0.000474043219583109,0.0007176771759986877,-0.0009257346391677856,22:26:26.640
0.7356743216514587,-0.14960023760795593,-9.762260437011719,0.209031343460083,0.09413909912109375,1.0629770755767822,-0.0006001442670822144,0.003051198786124587,-0.002770497929304838,22:26:26.650
0.754295289516449,-0.17064115405082703,-9.784972190856934,0.21186351776123047,0.09658074378967285,1.0649325847625732,-0.00017583371663931757,0.0016862527700141072,-0.00021867454051971436,22:26:26.660
0.7359951734542847,-0.17331798374652863,-9.782587051391602,0.2075362205505371,0.0960845947265625,1.0624847412109375,-0.0043295323848724365,0.003657303983345628,-0.0016260892152786255,22:26:26.670
0.7440692782402039,-0.18403580784797668,-9.7706937789917,0.21423792839050293,0.09804725646972656,1.0664000511169434,-0.0011492521734908223,0.002308376133441925,-0.0008616596460342407,22:26:26.680
0.7486022114753723,-0.17397400736808777,-9.779111862182617,0.20752978324890137,0.09607815742492676,1.0644304752349854,-0.003484263550490141,0.003363751107826829,-0.0014651564415544271,22:26:26.690
0.7516099214553833,-0.16122911870479584,-9.785194396972656,0.21037864685058594,0.0980372428894043,1.0649266242980957,-0.004178658593446016,0.0032680111471563578,-0.002094358205795288,22:26:26.700
0.7325144410133362,-0.15837396681308746,-9.77140998840332,0.21001482009887695,0.09316158294677734,1.064927101135254,0.0005492940545082092,0.001907535013742745,-0.0010270625352859497,22:26:26.710
0.7545725703239441,-0.1529615819454193,-9.784782409667969,0.21184372901916504,0.0970602035522461,1.0673646926879883,-0.0005133450613357127,-0.0006161630153656006,-0.0014837831258773804,22:26:26.720
0.7430145740509033,-0.16616202890872955,-9.762662887573242,0.21139812469482422,0.09559774398803711,1.0668771266937256,-0.0008266420336440206,0.002653710776939988,-0.0024858862161636353,22:26:26.730
0.7372968196868896,-0.16946718096733093,-9.796525955200195,0.21275615692138672,0.09950733184814453,1.0654213428497314,0.00039990994264371693,0.0004699454002548009,-0.0005662441253662109,22:26:26.740
0.7323426008224487,-0.17025452852249146,-9.77989387512207,0.20856904983520508,0.09315943717956543,1.063948631286621,-0.0018373129423707724,0.0036260115448385477,-0.000717863324098289,22:26:26.750
0.7338672876358032,-0.16215643286705017,-9.772433280944824,0.21274852752685547,0.09949922561645508,1.0678536891937256,-0.0025816266424953938,0.00287946336902678,-0.0010840595932677388,22:26:26.760
0.7587604522705078,-0.15821056067943573,-9.7809476852417,0.20947694778442383,0.09560132026672363,1.063464641571045,-0.004035979509353638,0.004166178870946169,-0.0019181519746780396,22:26:26.770
0.7411510944366455,-0.16699260473251343,-9.767690658569336,0.21232962608337402,0.09706521034240723,1.0663936138153076,-0.001960993045940995,0.0032363461796194315,-0.0017311424016952515,22:26:26.780
0.7393923401832581,-0.1660987287759781,-9.780463218688965,0.21045899391174316,0.09462261199951172,1.0659008026123047,0.002731568645685911,-0.0002577901177573949,-0.0024810433387756348,22:26:26.790
0.7461578845977783,-0.164960578083992,-9.791454315185547,0.2147519588470459,0.09658241271972656,1.0678620338439941,0.00020582230354193598,0.0019108876585960388,-0.00047124922275543213,22:26:26.800
0.7432236671447754,-0.16112127900123596,-9.774991989135742,0.2099759578704834,0.0946207046508789,1.065899133682251,-0.0016070902347564697,0.003952347207814455,-0.001588091254234314,22:26:26.810
0.7324463129043579,-0.16577614843845367,-9.779173851013184,0.21186184883117676,0.09657931327819824,1.0654189586639404,-0.003451109165325761,0.0031238424126058817,-0.0030566006898880005,22:26:26.820
0.729905366897583,-0.17671969532966614,-9.761754035949707,0.21094250679016113,0.09512448310852051,1.0620105266571045,-0.00021457673574332148,0.00032726669451221824,-0.0015012921066954732,22:26:26.830
0.7407178282737732,-0.17019987106323242,-9.777688980102539,0.21373534202575684,0.0985250473022461,1.0688304901123047,-0.003353506326675415,0.0023970382753759623,-0.0017601997824385762,22:26:26.840
0.7283341884613037,-0.16762349009513855,-9.771767616271973,0.20755219459533691,0.09510183334350586,1.0649173259735107,-0.001988932490348816,0.0009017065749503672,-0.0015072524547576904,22:26:26.850
0.7523773908615112,-0.15875783562660217,-9.767180442810059,0.21185731887817383,0.09657454490661621,1.066878318786621,-0.0009704380063340068,0.004136375151574612,-0.0007566065178252757,22:26:26.860
0.7430896162986755,-0.1499323844909668,-9.7783784866333,0.20711541175842285,0.09314894676208496,1.0654027462005615,-0.002500788075849414,0.0032579530961811543,-0.0011969358893111348,22:26:26.870
0.7450065612792969,-0.15395280718803406,-9.766043663024902,0.21187686920166016,0.09609484672546387,1.064446210861206,-0.002423301339149475,0.0035943465773016214,-0.0018373132916167378,22:26:26.880
0.7517332434654236,-0.15006478130817413,-9.761306762695312,0.2084958553314209,0.09608197212219238,1.0644338130950928,-0.00159665965475142,0.0014944005524739623,-0.0017121436540037394,22:26:26.890
0.7543583512306213,-0.16979968547821045,-9.772990226745605,0.2137446403503418,0.09853458404541016,1.0659115314483643,-0.0034987928811460733,0.0025546180550009012,-0.0015597790479660034,22:26:26.900
0.7365458011627197,-0.15668930113315582,-9.7758207321167,0.2085285186767578,0.09461688995361328,1.0654072761535645,0.00036861756234429777,0.0011602418962866068,-0.003191829426214099,22:26:26.910
0.7475168704986572,-0.16873665153980255,-9.798852920532227,0.2122969627380371,0.09853076934814453,1.0654199123382568,-0.0034015625715255737,0.0033659867476671934,-0.0006120652542449534,22:26:26.920
0.7141345143318176,-0.1659785807132721,-9.824071884155273,0.20898938179016113,0.09559464454650879,1.064922571182251,-0.007657707203179598,0.002874620258808136,-0.001837685820646584,22:26:26.930
0.7438863515853882,-0.15435507893562317,-9.604159355163574,0.21325063705444336,0.09852147102355957,1.069314956665039,0.0025196000933647156,0.0045416876673698425,-0.0008910894975997508,22:26:26.940
0.778818666934967,-0.14722377061843872,-9.863480567932129,0.2100059986114502,0.09365224838256836,1.0639538764953613,-0.00019259752298239619,-0.00040046870708465576,-0.0028781595174223185,22:26:26.950
0.755527138710022,-0.1641855388879776,-9.862030982971191,0.21329832077026367,0.0965719223022461,1.0693159103393555,-0.009291992522776127,0.0025311484932899475,-0.0019706785678863525,22:26:26.960
0.6968284249305725,-0.2194160372018814,-9.60062026977539,0.2085108757019043,0.09559774398803711,1.0634610652923584,-0.0017367303371429443,0.006688200403004885,-0.0018149614334106445,22:26:26.970
0.7394014000892639,-0.17825613915920258,-9.73000431060791,0.21373844146728516,0.09852814674377441,1.0678575038909912,0.0047532846219837666,0.0005317852483130991,-0.000948086497373879,22:26:26.980
0.7501901388168335,-0.19740326702594757,-9.936586380004883,0.20855236053466797,0.09364199638366699,1.0654077529907227,-0.005557387601584196,0.004219077527523041,-0.0020515176001936197,22:26:26.990
0.7858889102935791,-0.1580401062965393,-9.704504013061523,0.21283817291259766,0.09609389305114746,1.0659091472625732,-0.006061048246920109,0.002256222767755389,-0.0019613655749708414,22:26:27.000
0.770625650882721,-0.13482755422592163,-9.684406280517578,0.21002817153930664,0.09267592430114746,1.0644407272338867,0.0029666349291801453,0.001981668407097459,-0.0014625489711761475,22:26:27.010
0.7640537619590759,-0.17897747457027435,-9.853711128234863,0.21376681327819824,0.09755802154541016,1.0663986206054688,-0.0022064894437789917,0.003355555236339569,-0.0016272066859528422,22:26:27.020
