ax,ay,az,mgx,mgy,mgz,RotX,RotY,RotZ,ts
0.7523915767669678,-0.17083457112312317,-9.7632474899292,0.20846796035766602,0.09755229949951172,1.0620007514953613,-0.00043734911014325917,0.0024421140551567078,-0.0012297184439375997,22:29:00.862
0.7441851496696472,-0.16320541501045227,-9.787203788757324,0.2151193618774414,0.10196113586425781,1.0629966259002686,-0.0020928685553371906,0.0026753179263323545,0.0013561920495703816,22:29:00.872
0.7383967041969299,-0.177046999335289,-9.80121898651123,0.20847105979919434,0.09755539894104004,1.061028003692627,-0.0035148116294294596,0.0035563483834266663,0.00028703364660032094,22:29:00.882
0.7328243255615234,-0.15970061719417572,-9.761987686157227,0.21520376205444336,0.09805083274841309,1.0664036273956299,-0.003952160943299532,0.002679042750969529,-0.0024065375328063965,22:29:00.892
0.7472943663597107,-0.16478390991687775,-9.755313873291016,0.20850229263305664,0.09608840942382812,1.062488079071045,-0.000632554292678833,0.002448819810524583,-0.00039711600402370095,22:29:00.902
0.7423536777496338,-0.16744206845760345,-9.811239242553711,0.21272921562194824,0.1004786491394043,1.0663938522338867,-0.0013463200302794576,0.0028150156140327454,0.0002233311242889613,22:29:00.912
0.7339467406272888,-0.14934149384498596,-9.788054466247559,0.2113628387451172,0.09755992889404297,1.0629844665527344,-0.0008802860975265503,0.0017529354663565755,-0.0001609325408935547,22:29:00.922
0.7277630567550659,-0.16015613079071045,-9.77001667022705,0.21466422080993652,0.10048937797546387,1.0654280185699463,0.0011334195733070374,0.0015100464224815369,-0.002324581379070878,22:29:00.932
0.7252108454704285,-0.16136448085308075,-9.772115707397461,0.2104506492614746,0.09561324119567871,1.0610361099243164,0.0008659437298774719,0.001390092191286385,-0.001420825719833374,22:29:00.942
0.7300141453742981,-0.16448116302490234,-9.792200088500977,0.21181416511535645,0.09852886199951172,1.065418004989624,-0.004176422953605652,0.002227165037766099,-0.00165551935788244,22:29:00.952
0.737515389919281,-0.16906020045280457,-9.803436279296875,0.2099313735961914,0.0965733528137207,1.0649256706237793,-0.0015079976292327046,0.0022882595658302307,0.00031758102704770863,22:29:00.962
0.7408300638198853,-0.16798941791057587,-9.769015312194824,0.21466732025146484,0.10049247741699219,1.0644550323486328,-0.002286955714225769,0.0031577423214912415,0.00034738329122774303,22:29:00.972
0.7279508709907532,-0.17230066657066345,-9.776759147644043,0.20945310592651367,0.09657621383666992,1.0634641647338867,0.0008916482329368591,0.001436658320017159,-0.0011213123798370361,22:29:00.982
0.724696159362793,-0.1685248762369156,-9.7838134765625,0.21319317817687988,0.10145998001098633,1.0649356842041016,-0.0028587880078703165,0.004391558468341827,-0.002707540988922119,22:29:00.992
0.7326135635375977,-0.16723056137561798,-9.790849685668945,0.21046829223632812,0.09463214874267578,1.0629820823669434,-0.003499910468235612,0.003196112811565399,-0.0023402271326631308,22:29:01.002
0.7255555391311646,-0.17683939635753632,-9.774951934814453,0.21518301963806152,0.0990290641784668,1.0654301643371582,-0.005349144339561462,0.00395607203245163,-0.0004533678002189845,22:29:01.012
0.7329499125480652,-0.1583898961544037,-9.772192001342773,0.20752263069152832,0.09657049179077148,1.0629708766937256,-0.002905726432800293,0.0008167699561454356,-0.0007685273885726929,22:29:01.022
0.7535717487335205,-0.16585588455200195,-9.790291786193848,0.2132868766784668,0.09755945205688477,1.0654237270355225,-0.0002767890691757202,0.002133660251274705,-0.0011488796444609761,22:29:01.032
0.7548878788948059,-0.17335087060928345,-9.780326843261719,0.2104015350341797,0.09756112098693848,1.0615215301513672,-0.0037811698857694864,0.002764723729342222,-0.0027693805750459433,22:29:01.042
0.7668917775154114,-0.15460063517093658,-9.775747299194336,0.21466588973999023,0.10049080848693848,1.064941644668579,-0.0013194979401305318,0.0015696511836722493,-0.0013023614883422852,22:29:01.052
0.7377450466156006,-0.154142364859581,-9.784757614135742,0.2089853286743164,0.09609007835388184,1.0624899864196777,-0.004100054502487183,0.0033313410822302103,-0.001531839370727539,22:29:01.062
0.7336755394935608,-0.16524530947208405,-9.781464576721191,0.21468496322631836,0.09951138496398926,1.066401481628418,-0.002713501453399658,0.0027356671635061502,-0.0015500934096053243,22:29:01.072
0.7409458160400391,-0.1596534103155136,-9.787060737609863,0.20995116233825684,0.09609389305114746,1.0624935626983643,-0.0033486634492874146,0.0021154063288122416,-0.0013023612555116415,22:29:01.082
0.7235679626464844,-0.16470862925052643,-9.79259967803955,0.21565580368041992,0.09951972961425781,1.0649454593658447,-0.006101652048528194,0.0033507123589515686,-0.0018373132916167378,22:29:01.092
0.7305452823638916,-0.163404643535614,-9.779607772827148,0.2103865146636963,0.09804534912109375,1.0624942779541016,-0.0038400294724851847,0.002538598608225584,-0.0018324704142287374,22:29:01.102
0.7447808980941772,-0.17134349048137665,-9.78407096862793,0.21316313743591309,0.10242843627929688,1.0668809413909912,-0.002542138332501054,0.003953835926949978,-0.0020820642821490765,22:29:01.112
0.7253478169441223,-0.16169287264347076,-9.772592544555664,0.20895981788635254,0.09706330299377441,1.0629758834838867,-0.0006601213244721293,0.0009780750842764974,-0.0005036592483520508,22:29:01.122
0.7297489047050476,-0.15696904063224792,-9.789811134338379,0.21323919296264648,0.09950900077819824,1.0654230117797852,-0.002715364331379533,0.0024033712688833475,-0.0003002583980560303,22:29:01.132
0.7473216652870178,-0.17692036926746368,-9.785839080810547,0.2094745635986328,0.09609842300415039,1.0605456829071045,-0.002178177237510681,0.0018926338525488973,-0.0023327767848968506,22:29:01.142
0.7501009702682495,-0.16320738196372986,-9.787235260009766,0.21470308303833008,0.0990304946899414,1.064455509185791,-0.0006448478088714182,0.0012462958693504333,-0.002189725637435913,22:29:01.152
0.7438151836395264,-0.156930074095726,-9.775572776794434,0.20950555801391602,0.09463167190551758,1.0620055198669434,-0.0019293279619887471,0.0028582289814949036,-0.002293661469593644,22:29:01.162
0.7433198690414429,-0.159396231174469,-9.78359317779541,0.2141871452331543,0.09999370574951172,1.0673723220825195,3.445893889875151e-05,0.00037159767816774547,-0.0010553747415542603,22:29:01.172
0.7615576386451721,-0.16955207288265228,-9.77287769317627,0.21086621284484863,0.09804368019104004,1.0634686946868896,-0.001074746367521584,0.0011255964636802673,-0.002552196616306901,22:29:01.182
0.7472849488258362,-0.15938949584960938,-9.781944274902344,0.21469855308532715,0.09902572631835938,1.0659148693084717,-0.0018570572137832642,0.0027732925955206156,-0.00032149258186109364,22:29:01.192
0.7568475604057312,-0.16960498690605164,-9.792057991027832,0.20900177955627441,0.09560751914978027,1.0610308647155762,-0.0016514213057234883,0.002189911436289549,9.741634858073667e-05,22:29:01.202
0.7302759885787964,-0.1566416323184967,-9.791733741760254,0.21326875686645508,0.09804034233093262,1.0673694610595703,-0.00035241246223449707,0.002224184572696686,-0.0017199666472151875,22:29:01.212
0.7362322211265564,-0.15024641156196594,-9.763134956359863,0.21140742301940918,0.09560728073120117,1.0639584064483643,-0.0003024936013389379,0.0013967975974082947,-0.0015232713194563985,22:29:01.223
0.7316190004348755,-0.1743622124195099,-9.781631469726562,0.21564531326293945,0.10000872611999512,1.0644586086273193,-0.0020101668778806925,0.0025643035769462585,-0.0007234513759613037,22:29:01.233
0.7421456575393677,-0.17714037001132965,-9.790632247924805,0.20799541473388672,0.0970613956451416,1.062485933303833,-0.0015351922484114766,0.0016579404473304749,-0.0004488975100684911,22:29:01.243
0.7336636185646057,-0.18247035145759583,-9.78158187866211,0.21411871910095215,0.1029212474822998,1.0663979053497314,-0.0012431294890120625,0.0002617016725707799,-0.00012367963790893555,22:29:01.253
0.7376150488853455,-0.16376036405563354,-9.764248847961426,0.2089700698852539,0.09657430648803711,1.063462495803833,-0.0035554165951907635,0.004746579099446535,-0.0018812716007232666,22:29:01.263
0.754115641117096,-0.16277313232421875,-9.788142204284668,0.21316766738891602,0.1024332046508789,1.0654215812683105,-0.002570450073108077,0.003164447844028473,-0.0023622061125934124,22:29:01.273
0.7475756406784058,-0.1770395040512085,-9.800500869750977,0.20993447303771973,0.09657669067382812,1.0639526844024658,-0.003434344893321395,0.004687345586717129,-0.000980496290139854,22:29:01.283
0.7418141961097717,-0.16952699422836304,-9.768423080444336,0.21563029289245605,0.10049295425415039,1.0654313564300537,-0.0023700296878814697,0.0010671094059944153,-0.0010043383808806539,22:29:01.293
0.7437785267829895,-0.15691912174224854,-9.77336311340332,0.21234941482543945,0.09658598899841309,1.0639615058898926,-0.0020254403352737427,0.0018825758015736938,-0.0017050656024366617,22:29:01.303
0.728355348110199,-0.16690298914909363,-9.789178848266602,0.21273088455200195,0.10048031806945801,1.0659072399139404,-0.0019617381040006876,0.003027730155736208,-8.568167686462402e-05,22:29:01.313
0.7430209517478943,-0.1614276021718979,-9.78380012512207,0.20896148681640625,0.09706497192382812,1.0624895095825195,-0.0012300906237214804,0.0015890224603936076,-0.0006012618541717529,22:29:01.323
0.7468758821487427,-0.16043560206890106,-9.765233039855957,0.21374297142028809,0.09853291511535645,1.0663981437683105,-0.0019267202587798238,0.004906021524220705,-0.0022407621145248413,22:29:01.333
0.7361298203468323,-0.15489152073860168,-9.762510299682617,0.21087098121643066,0.09804868698120117,1.062009334564209,-0.0020433219615370035,0.0016273930668830872,-0.0016581268282607198,22:29:01.343
0.73668372631073,-0.16957725584506989,-9.798781394958496,0.21468663215637207,0.09951305389404297,1.0659148693084717,-0.002925097942352295,0.004891492892056704,-0.0020820649806410074,22:29:01.353
0.7600603699684143,-0.14885473251342773,-9.782858848571777,0.20701289176940918,0.09754014015197754,1.063941478729248,-0.003612786764279008,0.002056919038295746,-0.0008013100014068186,22:29:01.363
0.7475827932357788,-0.16602568328380585,-9.778139114379883,0.21420836448669434,0.09951591491699219,1.0644536018371582,0.0010697171092033386,0.0010440126061439514,-0.0016402454348281026,22:29:01.373
0.7397214770317078,-0.16987572610378265,-9.766392707824707,0.21039986610412598,0.09755969047546387,1.0620079040527344,-0.00011064112914027646,0.00175293511711061,0.00018496067787054926,22:29:01.383
0.7432872653007507,-0.17890329658985138,-9.789055824279785,0.2122659683227539,0.09999752044677734,1.063960075378418,-0.0007878989563323557,0.0009382143616676331,-0.0016584994737058878,22:29:01.393
0.7317329049110413,-0.17970497906208038,-9.774576187133789,0.21038484573364258,0.09804368019104004,1.0629806518554688,0.0008458273368887603,0.0007351860404014587,-0.0011242927284911275,22:29:01.403
0.7342499494552612,-0.15455596148967743,-9.781055450439453,0.2142333984375,0.09804248809814453,1.067859411239624,-0.002441182965412736,0.002287887269631028,-0.0006116926670074463,22:29:01.413
0.7352660298347473,-0.16172413527965546,-9.778358459472656,0.20900440216064453,0.09511065483093262,1.0639495849609375,-0.0012859703274443746,0.0023866072297096252,-7.748604548396543e-05,22:29:01.423
0.7428781986236572,-0.16420935094356537,-9.793634414672852,0.21181416511535645,0.09852886199951172,1.065418004989624,-0.003381446236744523,0.004693679511547089,-0.0005453823832795024,22:29:01.433
0.7364329099655151,-0.170246422290802,-9.764888763427734,0.2089836597442627,0.09608840942382812,1.062976360321045,-0.0018395485822111368,0.0007854776340536773,-0.0002063811116386205,22:29:01.443
0.7325902581214905,-0.16854935884475708,-9.78591251373291,0.21371769905090332,0.09950613975524902,1.0668842792510986,0.0011263415217399597,6.761401891708374e-05,-0.0004895032034255564,22:29:01.453
0.7452302575111389,-0.16126327216625214,-9.781439781188965,0.20984625816345215,0.09998345375061035,1.0654106140136719,-0.0014703718479722738,0.0009497628198005259,-0.0011056659277528524,22:29:01.463
0.7444575428962708,-0.16279973089694977,-9.76915454864502,0.21515774726867676,0.10000205039978027,1.0659162998199463,-0.0015225261449813843,0.00424925284460187,-0.0022284688893705606,22:29:01.473
0.7292281985282898,-0.16447089612483978,-9.765142440795898,0.21137475967407227,0.09707260131835938,1.0629847049713135,-0.00011771919525926933,0.0008599833818152547,-0.00035576531081460416,22:29:01.483
0.7322900891304016,-0.15353433787822723,-9.783374786376953,0.21372389793395996,0.09951233863830566,1.0649385452270508,-0.0019021335756406188,0.0036718326155096292,-0.002434477210044861,22:29:01.493
0.7407909035682678,-0.1660277396440506,-9.77755355834961,0.2095024585723877,0.09462833404541016,1.0629785060882568,-0.00491440249606967,0.0032769516110420227,-0.001247972366400063,22:29:01.503
0.7467918992042542,-0.16401608288288116,-9.782632827758789,0.21326303482055664,0.09853434562683105,1.0654232501983643,0.00024866321473382413,0.00048484659055247903,0.00019986185361631215,22:29:01.513
0.7492126226425171,-0.16818656027317047,-9.7608003616333,0.21041178703308105,0.09707236289978027,1.0620081424713135,-0.0020593407098203897,0.002473779022693634,-0.0017952175112441182,22:29:01.523
0.74994295835495,-0.1743880808353424,-9.78657341003418,0.21320772171020508,0.10047554969787598,1.067854881286621,-0.0032529241871088743,0.0035496435593813658,-0.0008933247299864888,22:29:01.533
0.7364795804023743,-0.17383362352848053,-9.76910400390625,0.2109067440032959,0.09658670425415039,1.0620100498199463,-0.0024404376745224,0.0024499373976141214,-0.002070888876914978,22:29:01.543
0.7390076518058777,-0.1812662035226822,-9.771939277648926,0.21371912956237793,0.09950757026672363,1.0663979053497314,-0.0005651264800690114,0.003116391599178314,-0.00267252279445529,22:29:01.553
0.7337124347686768,-0.17489057779312134,-9.769123077392578,0.20941734313964844,0.0980381965637207,1.0634634494781494,0.0005541369901038706,0.002345629036426544,-0.0002544373564887792,22:29:01.563
0.748302161693573,-0.1703559011220932,-9.790179252624512,0.21371030807495117,0.09999823570251465,1.0654246807098389,-0.0017289072275161743,0.0031458213925361633,-0.0020898880902677774,22:29:01.573
0.7455067038536072,-0.17903414368629456,-9.773568153381348,0.2118816375732422,0.0960996150970459,1.0629868507385254,-0.0017222017049789429,-8.605421317042783e-05,-0.002252682577818632,22:29:01.583
0.7360241413116455,-0.157160684466362,-9.787591934204102,0.21420693397521973,0.09951424598693848,1.0649402141571045,-0.0016752630472183228,0.0024406241718679667,-0.001055374857969582,22:29:01.593
0.7292985916137695,-0.16460958123207092,-9.775296211242676,0.20895981788635254,0.09706330299377441,1.0629758834838867,-0.0008873643237166107,0.0030556698329746723,0.00037718573003076017,22:29:01.603
0.7376402616500854,-0.16585828363895416,-9.795586585998535,0.21424579620361328,0.09805536270141602,1.0639677047729492,-0.0013787297066301107,0.0021474435925483704,-0.0007566065178252757,22:29:01.613
0.7417539954185486,-0.16729743778705597,-9.773231506347656,0.2109084129333496,0.096588134765625,1.061523675918579,-0.0036809600424021482,0.0031264498829841614,-0.001439452520571649,22:29:01.623
0.7426982522010803,-0.1662394255399704,-9.789673805236816,0.21326303482055664,0.09853434562683105,1.0654232501983643,-0.0026520341634750366,0.0015122817130759358,-0.0008765608654357493,22:29:01.633
0.7376427054405212,-0.1524251252412796,-9.787304878234863,0.20942068099975586,0.09804153442382812,1.062490701675415,0.0007713214145042002,-0.00039599835872650146,-0.0015936793060973287,22:29:01.643
0.7336754202842712,-0.1579345166683197,-9.786033630371094,0.21465706825256348,0.1009817123413086,1.0639684200286865,-0.0016577542992308736,0.0011539087863638997,-0.0014349815901368856,22:29:01.653
0.7412694692611694,-0.16302859783172607,-9.780656814575195,0.20896458625793457,0.09706807136535645,1.061516523361206,-0.0015221539651975036,0.002882071305066347,-0.0002935529046226293,22:29:01.663
0.7245122194290161,-0.17085601389408112,-9.787104606628418,0.2146897315979004,0.09951615333557129,1.0649421215057373,-0.003350899089127779,0.0026622789446264505,-0.0008985400781966746,22:29:01.673
0.7380503416061401,-0.17386922240257263,-9.774114608764648,0.2109394073486328,0.09512114524841309,1.062983512878418,-0.0015664846869185567,0.0025371089577674866,-0.002342090243473649,22:29:01.683
0.7386960983276367,-0.16999757289886475,-9.783341407775879,0.21368956565856934,0.10097622871398926,1.0644512176513672,-0.0009100885363295674,0.0024450947530567646,-0.0017773363506421447,22:29:01.693
0.7337398529052734,-0.15968415141105652,-9.784564971923828,0.20845770835876465,0.09804105758666992,1.061514139175415,-0.0011723488569259644,0.002963281935080886,-0.0017859041690826416,22:29:01.703
0.7521181106567383,-0.17580650746822357,-9.807416915893555,0.21420073509216309,0.09950804710388184,1.0668859481811523,-0.002108141779899597,0.003223680192604661,-0.0014856458874419332,22:29:01.713
0.7470583319664001,-0.16213342547416687,-9.774482727050781,0.21093368530273438,0.09561491012573242,1.0610377788543701,-0.0035103412810713053,0.0015487894415855408,-0.0007651746855117381,22:29:01.723
0.754612386226654,-0.15551617741584778,-9.785598754882812,0.21130585670471191,0.09949994087219238,1.0659024715423584,0.00032614919473417103,0.0023471193853765726,-0.0016361474990844727,22:29:01.733
0.749363124370575,-0.15718980133533478,-9.774935722351074,0.20891380310058594,0.0990145206451416,1.0624885559082031,-0.0020738691091537476,0.0026879834476858377,-0.0007286667823791504,22:29:01.743
0.742035984992981,-0.1539851576089859,-9.78294563293457,0.21422195434570312,0.0990302562713623,1.063967227935791,-0.002573430771008134,0.0022483989596366882,-0.0002723187208175659,22:29:01.754
0.7530247569084167,-0.1537594050168991,-9.779512405395508,0.21044445037841797,0.09560680389404297,1.0629818439483643,-0.0033855438232421875,0.002462603384628892,-0.0007174909114837646,22:29:01.764
0.73100346326828,-0.17525652050971985,-9.77588176727295,0.21370577812194824,0.09999346733093262,1.0668840408325195,0.0001003965808195062,0.0002702698402572423,-0.0020254403352737427,22:29:01.774
0.7423884868621826,-0.17610760033130646,-9.78525447845459,0.20752263069152832,0.09657049179077148,1.0629708766937256,-0.0032324346248060465,0.00211130827665329,-0.0015910716028884053,22:29:01.784
0.7320528626441956,-0.16168710589408875,-9.778626441955566,0.21326255798339844,0.09803390502929688,1.0693151950836182,-3.688038486870937e-05,0.0006383286090567708,-0.002279132604598999,22:29:01.794
0.7449308633804321,-0.1644877791404724,-9.778757095336914,0.20798587799072266,0.09705185890197754,1.0654046535491943,0.0019708650652319193,0.00012423843145370483,-0.002293661003932357,22:29:01.804
0.7303645014762878,-0.1727493405342102,-9.77945613861084,0.21274113655090332,0.0999913215637207,1.0663940906524658,0.0014090911718085408,0.0009136273874901235,-0.002928823232650757,22:29:01.814
0.740922212600708,-0.1610363870859146,-9.771868705749512,0.21041584014892578,0.09657692909240723,1.0644407272338867,-0.003939494956284761,0.002800487447530031,-0.0007979573565535247,22:29:01.824
0.729218602180481,-0.15706536173820496,-9.772953033447266,0.21369528770446777,0.10048222541809082,1.0663974285125732,-0.000508129654917866,0.0005653128027915955,-0.001204758882522583,22:29:01.834
0.7402357459068298,-0.17010901868343353,-9.779141426086426,0.20903754234313965,0.09414553642272949,1.0610313415527344,-0.0009462237358093262,0.001236237701959908,-0.0023499131202697754,22:29:01.844
0.7534247636795044,-0.16964410245418549,-9.783231735229492,0.21470165252685547,0.0990288257598877,1.0649421215057373,-0.0032503160182386637,0.0023426490370184183,-0.000866129994392395,22:29:01.854
0.7440891265869141,-0.15918919444084167,-9.791756629943848,0.21087980270385742,0.09755802154541016,1.0629825592041016,-0.0013172629987820983,0.0017682092729955912,-0.0014774504816159606,22:29:01.864
0.7554585337638855,-0.15867766737937927,-9.763701438903809,0.2156081199645996,0.10146927833557129,1.0649445056915283,-0.0007696450338698924,0.0024279579520225525,-0.0005509704351425171,22:29:01.874
0.7446009516716003,-0.16225755214691162,-9.782169342041016,0.20894169807434082,0.09754419326782227,1.0649216175079346,-0.0046018511056900024,0.005122460890561342,-0.0009421259164810181,22:29:01.884
0.7505009770393372,-0.16963179409503937,-9.777168273925781,0.21371197700500488,0.09999966621398926,1.0649383068084717,-0.00032186511089093983,0.0027364122215658426,-0.00097341847140342,22:29:01.894
0.7322962284088135,-0.16189317405223846,-9.766520500183105,0.2099447250366211,0.09608745574951172,1.064439296722412,-0.0029653313104063272,0.0029070302844047546,-0.00101253401953727,22:29:01.904
0.743232011795044,-0.16459664702415466,-9.785473823547363,0.21565890312194824,0.09952306747436523,1.0639724731445312,-0.0024147331714630127,0.001296587404794991,-0.0013001264305785298,22:29:01.914
0.7366207242012024,-0.16086992621421814,-9.781525611877441,0.21138978004455566,0.0965886116027832,1.062011957168579,-0.0019937753677368164,0.0014184043975546956,-0.0006355345249176025,22:29:01.924
0.7422901391983032,-0.1761053502559662,-9.778067588806152,0.21366429328918457,0.10194921493530273,1.0649373531341553,-0.004678592085838318,0.004722735844552517,-0.000543147383723408,22:29:01.934
0.7442860007286072,-0.16608023643493652,-9.777019500732422,0.2089700698852539,0.09657430648803711,1.063462495803833,0.001352839171886444,0.0015450642677024007,-0.0004410743713378906,22:29:01.944
0.7357206344604492,-0.18049146234989166,-9.761889457702637,0.21322894096374512,0.09999775886535645,1.0649363994598389,-0.0032946469727903605,0.0013923272490501404,-0.0021070241928100586,22:29:01.954
0.7407000064849854,-0.17735642194747925,-9.784577369689941,0.20994162559509277,0.0960843563079834,1.0654122829437256,-0.003197789192199707,0.0001577660586917773,-0.0008318573236465454,22:29:01.964
0.7452785968780518,-0.15456929802894592,-9.790539741516113,0.21129846572875977,0.09999203681945801,1.0644428730010986,-0.0010333956452086568,0.0025978314224630594,-0.001282617449760437,22:29:01.974
0.7493072152137756,-0.167103573679924,-9.78441047668457,0.2124018669128418,0.09464120864868164,1.0625028610229492,-0.002770498627796769,0.003206170629709959,-0.0009488313808105886,22:29:01.984
0.7444881796836853,-0.16210156679153442,-9.778443336486816,0.21172356605529785,0.1024324893951416,1.0639569759368896,-0.0022709371987730265,0.0015525147318840027,0.00030864024301990867,22:29:01.994
0.732661247253418,-0.15953096747398376,-9.778884887695312,0.20894217491149902,0.09804439544677734,1.0610296726226807,-0.0031828880310058594,0.0017652289243414998,-0.0007521361112594604,22:29:02.004
0.7441042065620422,-0.16573040187358856,-9.770868301391602,0.21372532844543457,0.09951400756835938,1.0644519329071045,-0.0015232712030410767,0.0030064955353736877,-0.0024691226426512003,22:29:02.014
0.7383366823196411,-0.16374635696411133,-9.798437118530273,0.2094428539276123,0.09706521034240723,1.0629775524139404,-0.0021964311599731445,0.0028414654079824686,-0.0022727996110916138,22:29:02.024
0.7399048805236816,-0.16818039119243622,-9.774188995361328,0.2122659683227539,0.09999752044677734,1.063960075378418,-0.0031664969865232706,0.0033797696232795715,-7.040798664093018e-05,22:29:02.034
0.7367687225341797,-0.16740280389785767,-9.782868385314941,0.20897483825683594,0.09657931327819824,1.0620031356811523,-0.0030893832445144653,0.00391956465318799,0.00019315630197525024,22:29:02.044
0.7391825318336487,-0.15891219675540924,-9.774106979370117,0.21612215042114258,0.10000419616699219,1.066406488418579,-0.002251937985420227,0.0036476184614002705,-0.0016350302612408996,22:29:02.054
0.7395721077919006,-0.17475083470344543,-9.777079582214355,0.21185946464538574,0.0970761775970459,1.0625,-0.0006016343832015991,0.0019157306523993611,-0.0006511807441711426,22:29:02.064
0.7368505001068115,-0.17601394653320312,-9.793852806091309,0.21418142318725586,0.10048747062683105,1.0654261112213135,-0.002110377186909318,0.0038037076592445374,-0.0016860663890838623,22:29:02.074
0.7348136305809021,-0.1644781082868576,-9.779888153076172,0.20843935012817383,0.09852218627929688,1.0634596347808838,-0.002381950616836548,0.0030493370722979307,-0.0008687378140166402,22:29:02.084
0.7384033203125,-0.18008317053318024,-9.773408889770508,0.21324396133422852,0.09951376914978027,1.0639636516571045,-0.003094971412792802,0.0024048613850027323,-0.00024847686290740967,22:29:02.094
0.7363750338554382,-0.18256697058677673,-9.780681610107422,0.21135258674621582,0.09804892539978027,1.062497854232788,-0.002315267687663436,0.0022796913981437683,-0.0027131291572004557,22:29:02.104
0.733489453792572,-0.16209685802459717,-9.792842864990234,0.2122955322265625,0.09852910041809082,1.065906286239624,-0.0014919787645339966,0.0033261256758123636,-0.0017464162083342671,22:29:02.114
0.7524391412734985,-0.1689760982990265,-9.777596473693848,0.2099437713623047,0.09658622741699219,1.0610339641571045,-0.0034935774747282267,0.002822466194629669,-0.00016279520059470087,22:29:02.124
0.7347590327262878,-0.17434892058372498,-9.773677825927734,0.21518778800964355,0.09903383255004883,1.0639708042144775,-0.0006657093181274831,0.00015776602958794683,-0.0017773357685655355,22:29:02.134
0.7430372834205627,-0.1461394727230072,-9.772067070007324,0.20990896224975586,0.0975496768951416,1.0644385814666748,-0.00262856506742537,0.00397805031388998,-0.003026053076609969,22:29:02.144
0.7431783080101013,-0.16244365274906158,-9.783859252929688,0.21566152572631836,0.09902620315551758,1.0668911933898926,-0.0023595988750457764,0.0020125883165746927,-0.002204254502430558,22:29:02.154
0.7380374670028687,-0.17481301724910736,-9.779727935791016,0.20995259284973145,0.09609556198120117,1.062006950378418,-0.002916530007496476,0.0013900923077017069,-0.0011239201994612813,22:29:02.164
0.7351887226104736,-0.15167023241519928,-9.76228141784668,0.21179914474487305,0.09901285171508789,1.0663907527923584,-0.0010367484064772725,0.0025516378227621317,-0.0016033649444580078,22:29:02.174
0.7440801858901978,-0.16400082409381866,-9.787866592407227,0.2123255729675293,0.09756064414978027,1.0639610290527344,-0.0027570875827223063,0.003501586616039276,-0.0015646220417693257,22:29:02.184
0.7546101808547974,-0.17707468569278717,-9.791424751281738,0.21463274955749512,0.1014561653137207,1.0678598880767822,0.0005396084161475301,-0.0005971642094664276,-0.0013101849472150207,22:29:02.194
0.7235796451568604,-0.1686796396970749,-9.76321029663086,0.20941734313964844,0.0980381965637207,1.0634634494781494,-0.0021960586309432983,0.0030511992517858744,-0.0018782916013151407,22:29:02.204
0.7449143528938293,-0.15045525133609772,-9.782567977905273,0.21468043327331543,0.09950661659240723,1.0678608417510986,-0.00014752148126717657,0.00197496241889894,-0.0019010156393051147,22:29:02.214
0.7415844798088074,-0.18165113031864166,-9.79271125793457,0.2099018096923828,0.09804177284240723,1.062978982925415,-0.0018134714337065816,0.003328360617160797,-0.0017724932404235005,22:29:02.224
0.7442982792854309,-0.1714945137500763,-9.782261848449707,0.21417999267578125,0.10048580169677734,1.0659124851226807,-0.00015757976507302374,0.001507811015471816,-0.0027302647940814495,22:29:02.234
0.7377073168754578,-0.17314060032367706,-9.78567123413086,0.20894074440002441,0.09804272651672363,1.0615160465240479,0.0022741034626960754,0.0017816202016547322,-0.0017482787370681763,22:29:02.244
0.7350209355354309,-0.1759958267211914,-9.785114288330078,0.2117619514465332,0.10047340393066406,1.0668766498565674,0.0024070963263511658,0.0012019649147987366,-0.001068785903044045,22:29:02.254
0.7362379431724548,-0.17430923879146576,-9.792129516601562,0.20992088317871094,0.09706234931945801,1.064438819885254,-0.002259388566017151,0.003993325401097536,-0.0021412973292171955,22:29:02.264
0.7357457876205444,-0.178877055644989,-9.778091430664062,0.2122478485107422,0.1004784107208252,1.0659055709838867,-0.004986673593521118,0.003978796768933535,-0.001300498959608376,22:29:02.274
0.7606889009475708,-0.15822581946849823,-9.77910041809082,0.21040558815002441,0.09706592559814453,1.0639541149139404,-0.0022374095860868692,0.0020796433091163635,-0.0011023135157302022,22:29:02.285
0.7518976926803589,-0.1571742594242096,-9.777405738830566,0.2112565040588379,0.10144782066345215,1.0663881301879883,-0.002057477831840515,0.00392179936170578,-0.0006221235380508006,22:29:02.295
0.7580119371414185,-0.14423392713069916,-9.772880554199219,0.2108767032623291,0.09755492210388184,1.063955545425415,-0.0022247431334108114,0.0017130747437477112,-0.0008545815362595022,22:29:02.305
0.7490785121917725,-0.14732298254966736,-9.785954475402832,0.21369695663452148,0.10048389434814453,1.065910816192627,-0.00027790668536908925,0.00019315630197525024,-0.0013869255781173706,22:29:02.315
0.7366204857826233,-0.15496818721294403,-9.765640258789062,0.21087980270385742,0.09755802154541016,1.0629825592041016,-0.0003535300784278661,0.0012693926692008972,-0.0023152681533247232,22:29:02.325
0.7393757104873657,-0.1555682122707367,-9.777082443237305,0.21322274208068848,0.0999915599822998,1.0668821334838867,-0.0026091940235346556,0.0027554112020879984,-0.001760199898853898,22:29:02.335
0.7408039569854736,-0.1609153300523758,-9.778830528259277,0.20845460891723633,0.0980379581451416,1.0624871253967285,-0.001546368352137506,0.0023746867664158344,-0.001221150509081781,22:29:02.345
0.7451454401016235,-0.1635187566280365,-9.775422096252441,0.2113208770751953,0.09901571273803711,1.064929723739624,-0.0029232357628643513,0.004022382665425539,-0.0025320800486952066,22:29:02.355
0.7496810555458069,-0.17302823066711426,-9.783432960510254,0.20850372314453125,0.09609007835388184,1.0620014667510986,-0.00174790620803833,0.00148545962292701,-0.0007867813110351562,22:29:02.365
0.7528705596923828,-0.16993798315525055,-9.765227317810059,0.21178007125854492,0.09999227523803711,1.0649311542510986,-0.0008944422588683665,0.0015353785129263997,-0.001967698335647583,22:29:02.375
0.7336137890815735,-0.1754344254732132,-9.779463768005371,0.21042227745056152,0.09658336639404297,1.0624949932098389,-0.0017542392015457153,0.0014284624485298991,-0.0017929822206497192,22:29:02.385
0.7341285943984985,-0.1650826334953308,-9.781718254089355,0.21271586418151855,0.10096478462219238,1.0668799877166748,0.0002888962917495519,0.0023907050490379333,-0.00038407742977142334,22:29:02.395
0.7360378503799438,-0.1758006513118744,-9.775885581970215,0.20992255210876465,0.09706401824951172,1.0639524459838867,-0.0022668393794447184,0.004334188997745514,-0.0019159171497449279,22:29:02.405
0.7495887279510498,-0.17672386765480042,-9.776937484741211,0.2113049030303955,0.09999847412109375,1.0624971389770508,-0.0025872141122817993,0.0030389055609703064,-0.0009682031231932342,22:29:02.415
0.7278277277946472,-0.1721366047859192,-9.779328346252441,0.2109203338623047,0.0961005687713623,1.0615239143371582,-0.00016801059246063232,0.0015774742932990193,-0.0012382864952087402,22:29:02.425
0.7459334135055542,-0.18485569953918457,-9.796598434448242,0.212752103805542,0.10000252723693848,1.0629887580871582,-0.002456829184666276,0.002578460145741701,-0.0015832486096769571,22:29:02.435
0.7327930331230164,-0.16771264374256134,-9.772470474243164,0.20897173881530762,0.09657597541809082,1.0629761219024658,-0.001777336117811501,0.0031555071473121643,-0.001909583923406899,22:29:02.445
0.7511337995529175,-0.1676741987466812,-9.782663345336914,0.21465086936950684,0.10097527503967285,1.0659141540527344,-0.004132091999053955,0.0036617740988731384,-0.0008855014457367361,22:29:02.455
0.7511736154556274,-0.1658809632062912,-9.778657913208008,0.2114415168762207,0.09414362907409668,1.0644452571868896,-0.0004500151553656906,0.002007000148296356,-0.00032596293021924794,22:29:02.465
0.74627685546875,-0.15943588316440582,-9.798307418823242,0.21329307556152344,0.0975656509399414,1.0634777545928955,-0.0021338469814509153,0.0017670916859060526,-0.00161230587400496,22:29:02.475
0.7566596269607544,-0.15454047918319702,-9.792295455932617,0.21042776107788086,0.09608936309814453,1.0644409656524658,-0.0001903623342514038,0.0020181762520223856,-0.0010084360837936401,22:29:02.485
0.7542457580566406,-0.1689358353614807,-9.767728805541992,0.21274280548095703,0.09999299049377441,1.0659074783325195,-0.0031486155930906534,0.002336316043511033,-0.0005319714546203613,22:29:02.495
0.7489861249923706,-0.15042966604232788,-9.780671119689941,0.21045231819152832,0.09561491012573242,1.0605494976043701,-0.001915544387884438,0.0018088147044181824,-0.0013191254111006856,22:29:02.505
0.753011167049408,-0.1606689989566803,-9.77143383026123,0.21277546882629395,0.09852790832519531,1.0668809413909912,-0.0011786818504333496,0.002215616637840867,8.661300671519712e-05,22:29:02.515
0.7568758726119995,-0.17223607003688812,-9.780624389648438,0.20896029472351074,0.09756350517272949,1.0590839385986328,-0.000761076807975769,0.003805943066254258,-0.0008624047040939331,22:29:02.525
0.7374470829963684,-0.16221755743026733,-9.782155990600586,0.2118065357208252,0.09852075576782227,1.0678503513336182,-0.0015564266359433532,0.0016527253901585937,0.00010635705257300287,22:29:02.535
0.7304713129997253,-0.16568852961063385,-9.76691722869873,0.21000027656555176,0.0941462516784668,1.0620076656341553,-0.002937391633167863,0.003985874354839325,-0.001586601254530251,22:29:02.545
0.7355824112892151,-0.17274557054042816,-9.785114288330078,0.21418142318725586,0.10048747062683105,1.0654261112213135,-0.002573058009147644,0.003278069430962205,-0.001508742687292397,22:29:02.555
0.7314772605895996,-0.18174681067466736,-9.778362274169922,0.20896291732788086,0.09706664085388184,1.0620028972625732,-0.0007174909696914256,0.0018263235688209534,-0.0017743558855727315,22:29:02.565
0.7302892208099365,-0.1598963439464569,-9.790193557739258,0.21422338485717773,0.09903168678283691,1.0634806156158447,-0.002740323543548584,0.002240575850009918,-0.001496821758337319,22:29:02.575
0.7511927485466003,-0.161270871758461,-9.772250175476074,0.2070446014404297,0.0965733528137207,1.061509609222412,-0.0011112542124465108,0.0029759481549263,-0.0016018749447539449,22:29:02.585
0.7328846454620361,-0.16378110647201538,-9.766401290893555,0.21466732025146484,0.10049247741699219,1.0644550323486328,-0.001810491201467812,0.002568773925304413,-0.0019725412130355835,22:29:02.595
0.7329442501068115,-0.16416378319263458,-9.79107666015625,0.20849347114562988,0.09657907485961914,1.0615148544311523,-0.00171661376953125,0.0011725352378562093,-0.001373887062072754,22:29:02.605
0.7462373971939087,-0.14959922432899475,-9.765486717224121,0.2127397060394287,0.0999898910522461,1.066880464553833,0.0005608425126411021,8.214265835704282e-05,-0.0020779669284820557,22:29:02.615
0.7324945330619812,-0.15852642059326172,-9.760876655578613,0.2099018096923828,0.09804177284240723,1.062978982925415,-0.0032145532313734293,0.0027583912014961243,-3.05473840853665e-05,22:29:02.625
0.7290815711021423,-0.16129405796527863,-9.790241241455078,0.21177268028259277,0.10048437118530273,1.0634713172912598,-0.0030271708965301514,0.0014888123841956258,-0.0005107373581267893,22:29:02.635
0.7406436204910278,-0.18193267285823822,-9.780677795410156,0.20948171615600586,0.09560632705688477,1.0620052814483643,-0.0034049153327941895,0.002005137735977769,-0.0015210360288619995,22:29:02.645
0.731878936290741,-0.153303861618042,-9.771951675415039,0.21419334411621094,0.10000014305114746,1.0654263496398926,-0.0026676803827285767,0.003395416308194399,-0.0009335579234175384,22:29:02.655
0.7505080699920654,-0.15715964138507843,-9.767492294311523,0.20894479751586914,0.09754753112792969,1.063948631286621,-0.0018917027628049254,0.0033399094827473164,-0.0023718925658613443,22:29:02.665
0.7333477139472961,-0.16434204578399658,-9.78318977355957,0.21422910690307617,0.09853816032409668,1.0654268264770508,-0.000279396801488474,0.0009482725290581584,-0.0027604401111602783,22:29:02.675
0.7369436025619507,-0.16096800565719604,-9.775660514831543,0.20988988876342773,0.09852933883666992,1.062978744506836,-0.0008516013040207326,0.0003283842816017568,-0.000873953162226826,22:29:02.685
0.7456524968147278,-0.17273277044296265,-9.773741722106934,0.21321845054626465,0.10048675537109375,1.0644495487213135,-0.0007417052984237671,0.002041645348072052,-0.0008672476396895945,22:29:02.695
0.7358347177505493,-0.1690927892923355,-9.769400596618652,0.2099287509918213,0.09707045555114746,1.0620064735412598,-0.00031404197216033936,0.0004654750518966466,0.00016931441496126354,22:29:02.705
0.7250868678092957,-0.17613445222377777,-9.787483215332031,0.21223115921020508,0.10096120834350586,1.0673649311065674,6.239861249923706e-05,0.002999045653268695,-0.00046491631655953825,22:29:02.715
0.7483841180801392,-0.16818051040172577,-9.783029556274414,0.20991206169128418,0.09755277633666992,1.0634655952453613,-0.003238394856452942,0.0015733764739707112,-0.000667572021484375,22:29:02.725
0.7300665378570557,-0.16263709962368011,-9.771867752075195,0.21280550956726074,0.09755921363830566,1.0649356842041016,-0.0005189329967834055,0.0023348259273916483,-0.0020541250705718994,22:29:02.735
0.7496704459190369,-0.17155714333057404,-9.774099349975586,0.20947861671447754,0.09560298919677734,1.0629782676696777,-0.0024009491316974163,0.003909506369382143,-0.002479925751686096,22:29:02.745
0.7318022847175598,-0.17252792418003082,-9.770777702331543,0.21228361129760742,0.09901642799377441,1.065906047821045,-0.003826245665550232,0.0020956622902303934,-0.0023584815207868814,22:29:02.755
0.7402511239051819,-0.1810780018568039,-9.774656295776367,0.20992565155029297,0.09706711769104004,1.0629794597625732,-0.00044368207454681396,0.0024581330362707376,-0.0007033348083496094,22:29:02.765
0.7409526705741882,-0.17213189601898193,-9.774957656860352,0.21278786659240723,0.0985405445098877,1.0629892349243164,-0.0032059848308563232,0.0034084543585777283,-0.0011928380699828267,22:29:02.775
0.7552667260169983,-0.17763327062129974,-9.777630805969238,0.21138668060302734,0.09658527374267578,1.0629849433898926,0.0010306016774848104,0.001995079219341278,1.0244549230264965e-05,22:29:02.785
0.7313159108161926,-0.16215327382087708,-9.788113594055176,0.2108290195465088,0.09950447082519531,1.0639548301696777,-0.0009618698386475444,0.0027013940270990133,-0.00032447275589220226,22:29:02.795
0.7512450218200684,-0.14707700908184052,-9.780351638793945,0.2118816375732422,0.0960996150970459,1.0629868507385254,-0.0016339123249053955,0.005281530786305666,-0.0013995915651321411,22:29:02.805
0.7414906024932861,-0.17436771094799042,-9.759278297424316,0.21370720863342285,0.09999489784240723,1.0663976669311523,-0.0019237396772950888,0.0019019469618797302,-0.0011671335669234395,22:29:02.816
0.7417721748352051,-0.17153453826904297,-9.779332160949707,0.20752429962158203,0.0965721607208252,1.0624845027923584,-0.002402439247816801,0.002347491914406419,-0.0006932765245437622,22:29:02.826
0.7445562481880188,-0.15362265706062317,-9.797109603881836,0.21227622032165527,0.09950852394104004,1.0644466876983643,-0.001078471657820046,0.0024011358618736267,-0.0013366341590881348,22:29:02.836
0.7397916913032532,-0.17098106443881989,-9.784836769104004,0.21042847633361816,0.09658980369567871,1.060549020767212,-0.0007241964340209961,0.0016408042283728719,-0.0018134713172912598,22:29:02.846
0.7403658032417297,-0.16331280767917633,-9.767617225646973,0.21377301216125488,0.0975644588470459,1.0644526481628418,-0.0034347178880125284,0.0037847089115530252,-0.0027161091566085815,22:29:02.856
0.7403998374938965,-0.169186070561409,-9.774155616760254,0.20752573013305664,0.0965738296508789,1.061997890472412,-0.0013954938622191548,0.0034241005778312683,-0.001130625489167869,22:29:02.866
0.7458472847938538,-0.16077102720737457,-9.799104690551758,0.21273398399353027,0.10048341751098633,1.064934492111206,-0.0019121915102005005,0.0027267264667898417,-0.002126023406162858,22:29:02.876
0.7463546395301819,-0.16923514008522034,-9.776176452636719,0.209930419921875,0.09707188606262207,1.0615200996398926,0.0001585111313033849,0.0014116988750174642,-0.0013239681720733643,22:29:02.886
0.740729570388794,-0.16218814253807068,-9.786314964294434,0.21322274208068848,0.0999915599822998,1.0668821334838867,-0.0007290393696166575,0.001613982138223946,-0.0011067837476730347,22:29:02.896
0.7346783876419067,-0.1730889230966568,-9.789471626281738,0.21140170097351074,0.09610104560852051,1.0620121955871582,-0.0022727998439222574,0.001526065170764923,-0.0017605723114684224,22:29:02.906
0.7356626987457275,-0.1724918782711029,-9.785737037658691,0.21178889274597168,0.0995018482208252,1.065904140472412,-0.0020936133805662394,0.0010324642062187195,-0.0026676803827285767,22:29:02.916
0.7500150203704834,-0.17279575765132904,-9.764335632324219,0.20988988876342773,0.09852933883666992,1.062978744506836,-0.004807115066796541,0.0060694292187690735,-0.000743568001780659,22:29:02.926
0.7296504378318787,-0.1778116673231125,-9.775896072387695,0.21217131614685059,0.10339808464050293,1.067363977432251,-0.0010155142517760396,0.005725957918912172,-0.0004064291715621948,22:29:02.936
0.7300117015838623,-0.17448708415031433,-9.78478717803955,0.21088767051696777,0.09756612777709961,1.0605502128601074,-0.0029537829104810953,0.002440623939037323,-0.0019904228392988443,22:29:02.946
0.7481372952461243,-0.1626267433166504,-9.793364524841309,0.2132408618927002,0.09951043128967285,1.064936637878418,-0.0002708286338020116,0.0025024637579917908,-0.0018414109945297241,22:29:02.956
0.7524002194404602,-0.1532200276851654,-9.781390190124512,0.20988821983337402,0.09852766990661621,1.0634651184082031,0.0009352341876365244,0.0006912276148796082,-0.0018179417820647359,22:29:02.966
0.7238457202911377,-0.16998441517353058,-9.776017189025879,0.21373319625854492,0.09952211380004883,1.0620195865631104,-0.0003658235364127904,0.0013036654563620687,-0.0027570873498916626,22:29:02.976
0.7338728308677673,-0.1677986979484558,-9.777667045593262,0.20894217491149902,0.09804439544677734,1.0610296726226807,-0.0020194801036268473,0.003427080810070038,-0.0007487834081985056,22:29:02.986
0.7464918494224548,-0.16799907386302948,-9.775291442871094,0.21468567848205566,0.10001158714294434,1.062509536743164,-0.0016983598470687866,0.0037031255196779966,-0.002858042949810624,22:29:02.996
0.7340704798698425,-0.15098774433135986,-9.778112411499023,0.2103745937347412,0.09853291511535645,1.0624940395355225,0.0006517395377159119,0.001423620036803186,-0.0009350479813292623,22:29:03.006
0.7416066527366638,-0.1687944382429123,-9.786252975463867,0.2117903232574463,0.0995035171508789,1.065417766571045,0.00019092114234808832,0.0008674339042045176,-0.0025115907192230225,22:29:03.016
0.7438310384750366,-0.16005191206932068,-9.76471996307373,0.20945167541503906,0.09657478332519531,1.063950777053833,-0.0003695487976074219,0.002353824907913804,-0.0021558254957199097,22:29:03.026
0.7366718053817749,-0.16375556588172913,-9.78368854522705,0.21423077583312988,0.09853959083557129,1.0649404525756836,-0.0008840114460326731,0.0029882416129112244,0.00011194497346878052,22:29:03.036
0.7345643043518066,-0.16282708942890167,-9.7789306640625,0.20946836471557617,0.09609198570251465,1.0624916553497314,-0.0013034791918471456,0.000856257975101471,-0.0014293940039351583,22:29:03.046
0.7394347190856934,-0.17759951949119568,-9.776176452636719,0.21324968338012695,0.09902000427246094,1.0659093856811523,-0.002466886769980192,0.0011591240763664246,-0.001842900994233787,22:29:03.056
0.7303794622421265,-0.17919987440109253,-9.772832870483398,0.2113628387451172,0.09755992889404297,1.0629844665527344,-0.002418830990791321,0.0012172387214377522,-0.0012967735528945923,22:29:03.066
0.7293974757194519,-0.16193273663520813,-9.771594047546387,0.21372389793395996,0.09951233863830566,1.0649385452270508,-0.00012181697820778936,0.0012131409021094441,-0.0026136634405702353,22:29:03.076
0.7343913316726685,-0.17635230720043182,-9.783926963806152,0.2099001407623291,0.09804010391235352,1.0634653568267822,-0.00390633987262845,0.004582293331623077,-0.0007059425697661936,22:29:03.086
0.7400081753730774,-0.1706014722585678,-9.785483360290527,0.21078848838806152,0.10096192359924316,1.065413475036621,0.0005071982741355896,0.0017086043953895569,-0.0025376679841428995,22:29:03.096
0.7392330169677734,-0.1620742678642273,-9.78129768371582,0.21284031867980957,0.09659576416015625,1.0615308284759521,-0.0012628735275939107,0.0007653608918190002,-0.0005867332802154124,22:29:03.106
0.7252985835075378,-0.15699653327465057,-9.76878547668457,0.21375799179077148,0.09804868698120117,1.0654253959655762,-7.636845111846924e-05,0.0013837591977789998,-0.000905618246179074,22:29:03.116
0.7368547916412354,-0.17437739670276642,-9.786907196044922,0.20896458625793457,0.09706807136535645,1.061516523361206,-0.0003460794978309423,0.0019220635294914246,-0.0005207956419326365,22:29:03.126
0.7510702013969421,-0.1524471640586853,-9.781923294067383,0.2171015739440918,0.09952235221862793,1.0659236907958984,-0.0004090369038749486,0.0029539691749960184,-0.0007130205631256104,22:29:03.136
0.7505089044570923,-0.1747233122587204,-9.78577995300293,0.20997166633605957,0.09511590003967285,1.0634665489196777,0.000299699604511261,-0.00047348442603833973,-0.0009659678908064961,22:29:03.146
0.7442271113395691,-0.15902990102767944,-9.778484344482422,0.21422910690307617,0.09853816032409668,1.0654268264770508,0.0004971399903297424,0.00021439047122839838,-0.00029355284641496837,22:29:03.156
0.7280139923095703,-0.16162316501140594,-9.779609680175781,0.21041035652160645,0.09707069396972656,1.0624947547912598,-0.0028293579816818237,0.0037712978664785624,-0.002220645546913147,22:29:03.166
0.7304679751396179,-0.16470985114574432,-9.78182601928711,0.2132558822631836,0.09902644157409668,1.0639636516571045,-0.004446506500244141,0.004198216833174229,-0.0010605902643874288,22:29:03.176
0.7439720630645752,-0.1689794957637787,-9.775680541992188,0.2109053134918213,0.09658503532409668,1.0624966621398926,0.001602061209268868,-0.0004082918167114258,-0.0017765910597518086,22:29:03.186
0.7366409301757812,-0.17109031975269318,-9.787364959716797,0.21320199966430664,0.10096955299377441,1.065908670425415,0.0013867394300177693,0.0017816200852394104,-0.002086162567138672,22:29:03.196
0.7244482636451721,-0.15332819521427155,-9.785201072692871,0.20894956588745117,0.09755229949951172,1.0624892711639404,1.471489667892456e-05,0.0022554772440344095,-0.0008542090654373169,22:29:03.206
0.7262247800827026,-0.18201372027397156,-9.786215782165527,0.2117452621459961,0.10095620155334473,1.068335771560669,-0.0025287270545959473,0.0035261735320091248,-0.0013500450877472758,22:29:03.216
0.7407025694847107,-0.1747940480709076,-9.77696418762207,0.20797300338745117,0.0980377197265625,1.0619988441467285,0.0012489035725593567,0.0010391698451712728,-0.0007327646017074585,22:29:03.226
0.7316892743110657,-0.16600742936134338,-9.78428840637207,0.21420526504516602,0.09951281547546387,1.0654265880584717,-3.352762360009365e-05,0.0022927303798496723,-0.001647323602810502,22:29:03.236
0.7261026501655579,-0.17002686858177185,-9.789667129516602,0.20943093299865723,0.09755253791809082,1.0629773139953613,-0.0024791809264570475,0.003376416862010956,-0.001236423966474831,22:29:03.246
0.7405260801315308,-0.17476296424865723,-9.77627944946289,0.21375083923339844,0.0985410213470459,1.0639657974243164,-0.0011384488316252828,0.001460127648897469,-0.002389773726463318,22:29:03.256
0.7462177276611328,-0.16525974869728088,-9.774269104003906,0.2113945484161377,0.09659337997436523,1.0605525970458984,-0.002158805727958679,0.0017939136596396565,-0.0004906207323074341,22:29:03.266
0.7398595213890076,-0.16176310181617737,-9.766749382019043,0.21323776245117188,0.09950733184814453,1.0659093856811523,0.00047255310346372426,0.002581067383289337,-0.00193081796169281,22:29:03.276
0.7465205192565918,-0.16912324726581573,-9.79833984375,0.21043729782104492,0.0960988998413086,1.0615222454071045,-0.005366653669625521,0.003102608025074005,-0.001282990095205605,22:29:03.286
0.751162052154541,-0.15372495353221893,-9.777201652526855,0.214188814163208,0.09999537467956543,1.0668857097625732,-0.0010244547156617045,0.002303533023223281,-0.0011332333087921143,22:29:03.296
0.7491520643234253,-0.15734624862670898,-9.7529935836792,0.20846796035766602,0.09755229949951172,1.0620007514953613,-0.0014301389455795288,0.0012101606698706746,-0.00022016465663909912,22:29:03.306
0.7479950785636902,-0.1655566245317459,-9.786409378051758,0.21326470375061035,0.09853577613830566,1.064936876296997,0.00012423844600562006,0.0016262757126241922,-0.0001952052116394043,22:29:03.316
0.7432947158813477,-0.17558538913726807,-9.782611846923828,0.20993494987487793,0.0970766544342041,1.060060739517212,-0.0022105872631073,0.0005235896096564829,-0.0019088389817625284,22:29:03.326
0.7365862727165222,-0.17257240414619446,-9.76252555847168,0.2137165069580078,0.10000443458557129,1.063478708267212,-0.0010401011677458882,-0.0005103647126816213,-9.760260581970215e-05,22:29:03.336
0.7352476716041565,-0.16517561674118042,-9.77314281463623,0.21041440963745117,0.09657526016235352,1.064927339553833,-0.002675876021385193,0.0036953019443899393,-0.0018291175365447998,22:29:03.346
0.7475290298461914,-0.17481198906898499,-9.782814979553223,0.21323204040527344,0.10000109672546387,1.0639634132385254,-0.0006608664989471436,0.002599321538582444,0.0003458932333160192,22:29:03.357
0.7340035438537598,-0.16711319983005524,-9.787827491760254,0.2108900547027588,0.09706902503967285,1.0634691715240479,-0.0010564924450591207,0.0017644839826971292,-0.001389905926771462,22:29:03.367
0.7382859587669373,-0.16517508029937744,-9.766435623168945,0.2132408618927002,0.09951043128967285,1.064936637878418,-0.0028833746910095215,0.0038208444602787495,-0.0007864089566282928,22:29:03.377
0.7428292036056519,-0.15969255566596985,-9.769078254699707,0.20942211151123047,0.09804320335388184,1.0620040893554688,0.0011214984115213156,0.0010704622836783528,-0.0019412487745285034,22:29:03.387
0.7354577779769897,-0.16119809448719025,-9.783889770507812,0.2127847671508789,0.09853744506835938,1.0639622211456299,3.2968822779366747e-05,0.00212620897218585,-0.0016130504664033651,22:29:03.397
0.7406826019287109,-0.16243785619735718,-9.7654447555542,0.21093225479125977,0.09561324119567871,1.0615241527557373,-0.00393986701965332,0.0034486877266317606,-0.0015269964933395386,22:29:03.407
0.7435086965560913,-0.172341987490654,-9.756372451782227,0.21228671073913574,0.09901952743530273,1.0649333000183105,0.0012008472112938762,0.0008521602139808238,-0.00037439161678776145,22:29:03.417
0.7498612403869629,-0.15390846133232117,-9.779539108276367,0.20994234085083008,0.09658455848693848,1.0615203380584717,0.0015785919968038797,-0.0006489456281997263,-0.0018671154975891113,22:29:03.427
0.7492744326591492,-0.16128678619861603,-9.788337707519531,0.21371197700500488,0.09999966621398926,1.0649383068084717,0.0009158626198768616,0.0009292738395743072,-0.00048279770999215543,22:29:03.437
0.7530583143234253,-0.1757931262254715,-9.756383895874023,0.2079787254333496,0.09754395484924316,1.0639450550079346,-0.0007994472980499268,0.002860091393813491,-0.0013630837202072144,22:29:03.447
0.7507088780403137,-0.16838262975215912,-9.777836799621582,0.21183180809020996,0.09754753112792969,1.0673644542694092,-0.001117214560508728,0.0012872738298028708,0.00019427390361670405,22:29:03.457
0.7347335815429688,-0.14559489488601685,-9.784856796264648,0.21038317680358887,0.09804201126098633,1.063467025756836,-0.004007667303085327,0.001203082618303597,-0.00035837292671203613,22:29:03.467
0.7426081895828247,-0.16711463034152985,-9.775665283203125,0.2122793197631836,0.09951162338256836,1.0634737014770508,-0.0016916543245315552,0.0024097042623907328,-0.0016618521185591817,22:29:03.477
0.7467248439788818,-0.15643930435180664,-9.77148151397705,0.2118680477142334,0.09658551216125488,1.0634729862213135,0.0015283003449440002,0.0015525148482993245,-0.0007130205631256104,22:29:03.487
0.7569674253463745,-0.17580056190490723,-9.785101890563965,0.2136983871459961,0.10048556327819824,1.0654244422912598,-0.0015661123907193542,0.003022887511178851,-0.0014569612685590982,22:29:03.497
0.7515158653259277,-0.1733023226261139,-9.778176307678223,0.2103874683380127,0.09754681587219238,1.0658996105194092,-0.000856444297824055,0.001175515353679657,-0.0005118549452163279,22:29:03.507
0.7426028251647949,-0.17165294289588928,-9.765783309936523,0.21369528770446777,0.10048222541809082,1.0663974285125732,-0.0023465605918318033,0.0018084421753883362,-0.0015806406736373901,22:29:03.517
0.7398785352706909,-0.17243759334087372,-9.787287712097168,0.2099018096923828,0.09804177284240723,1.062978982925415,-0.0016015024157240987,0.0016851350665092468,-0.0011891125468537211,22:29:03.527
0.7362486720085144,-0.1801934540271759,-9.788293838500977,0.2113478183746338,0.09804415702819824,1.0639572143554688,-0.0007957220659591258,0.0031465666834264994,-0.0012055039405822754,22:29:03.537
0.746087372303009,-0.16162614524364471,-9.785490989685059,0.21085286140441895,0.09852981567382812,1.0639550685882568,-0.003192201489582658,0.004607252776622772,-0.00018030406499747187,22:29:03.547
0.737613320350647,-0.18267005681991577,-9.76747989654541,0.21318531036376953,0.10145211219787598,1.0673680305480957,-0.00114068400580436,0.002587399911135435,-0.0019069758709520102,22:29:03.557
0.7400749325752258,-0.16719770431518555,-9.771583557128906,0.20992255210876465,0.09706401824951172,1.0639524459838867,-0.0031802807934582233,0.0025359916035085917,-0.0014048069715499878,22:29:03.567
0.7367913722991943,-0.16572093963623047,-9.779020309448242,0.21469378471374512,0.09902095794677734,1.0673744678497314,-0.001420825719833374,0.0008257105946540833,-0.0018827618332579732,22:29:03.577
0.7418331503868103,-0.16842153668403625,-9.784358978271484,0.2099437713623047,0.09658622741699219,1.0610339641571045,-0.002256408566609025,0.0005243346095085144,-0.0012192873982712626,22:29:03.587
0.7188118100166321,-0.16264617443084717,-9.775636672973633,0.21087050437927246,0.0975484848022461,1.065901279449463,0.000725872814655304,-2.9429798814817332e-05,-0.0003363937430549413,22:29:03.597
0.7422863245010376,-0.16662393510341644,-9.777445793151855,0.21088290214538574,0.09756135940551758,1.062009572982788,-0.0025030227843672037,0.0019213187042623758,-0.0016737730475142598,22:29:03.607
0.746079683303833,-0.16824032366275787,-9.768940925598145,0.21323204040527344,0.10000109672546387,1.0639634132385254,-0.001968443626537919,0.0026250260416418314,-0.0013552606105804443,22:29:03.617
0.7316769361495972,-0.15466013550758362,-9.765247344970703,0.20891213417053223,0.09901285171508789,1.0629749298095703,-0.002076476812362671,0.0031581150833517313,-0.0010740011930465698,22:29:03.627
0.7373579740524292,-0.15713565051555634,-9.778722763061523,0.21271729469299316,0.10096621513366699,1.0663936138153076,-0.0011101366253569722,0.0038737431168556213,-0.002263113856315613,22:29:03.637
0.7245562076568604,-0.16177597641944885,-9.7813081741333,0.21089649200439453,0.0970754623413086,1.0615234375,-0.004715099465101957,0.004041753709316254,-0.0001002103163045831,22:29:03.647
0.7419654130935669,-0.1589404046535492,-9.771843910217285,0.21271729469299316,0.10096621513366699,1.0663936138153076,-0.0014275313587859273,0.002472661668434739,-0.0022679567337036133,22:29:03.657
0.7469366192817688,-0.17401985824108124,-9.778451919555664,0.20945072174072266,0.09707331657409668,1.0605452060699463,-0.002461299067363143,0.0013099981006234884,-0.0023413451854139566,22:29:03.667
0.7569526433944702,-0.16057677567005157,-9.78266429901123,0.21180391311645508,0.09901762008666992,1.0649313926696777,0.0006152316927909851,0.002340413862839341,-0.0006172806606628001,22:29:03.677
0.7433981895446777,-0.1576530486345291,-9.786130905151367,0.20946264266967773,0.09658598899841309,1.0605454444885254,-0.0018451364012435079,0.004283525049686432,-0.0007327646599151194,22:29:03.687
0.7519227266311646,-0.15422601997852325,-9.773818016052246,0.21132969856262207,0.0985252857208252,1.0659027099609375,-0.0018227845430374146,0.001465342938899994,-0.0025983902160078287,22:29:03.697
0.7394523620605469,-0.162462055683136,-9.76979923248291,0.21085906028747559,0.09853625297546387,1.0620090961456299,-0.0029832131695002317,0.0020379205234348774,-0.0003974885621573776,22:29:03.707
0.7352151870727539,-0.16774214804172516,-9.772436141967773,0.21419763565063477,0.09950470924377441,1.0678589344024658,-0.0029817225877195597,0.0033097341656684875,-0.0013384968042373657,22:29:03.717
0.7347025871276855,-0.17534683644771576,-9.793292045593262,0.20937609672546387,0.09999418258666992,1.0615170001983643,-0.001681968686170876,0.003127939999103546,-0.0008504838333465159,22:29:03.727
0.7248482704162598,-0.16777606308460236,-9.771079063415527,0.21419501304626465,0.10000157356262207,1.0649399757385254,0.00019799919391516596,0.0007992610917426646,-0.0008985400199890137,22:29:03.737
0.7283524870872498,-0.16466529667377472,-9.776046752929688,0.21181011199951172,0.09902405738830566,1.0629854202270508,-6.593763828277588e-05,0.002844445640221238,-0.002181902527809143,22:29:03.748
0.7422376275062561,-0.17344583570957184,-9.760231971740723,0.21184849739074707,0.09706497192382812,1.0659050941467285,-0.0007260590209625661,0.004069319926202297,-0.0005830079317092896,22:29:03.758
0.7440969347953796,-0.18458247184753418,-9.787151336669922,0.20896291732788086,0.09706664085388184,1.0620028972625732,-0.0008173288078978658,0.0038256875704973936,0.00017825516988523304,22:29:03.768
0.7481359839439392,-0.16027618944644928,-9.776751518249512,0.21418309211730957,0.10048890113830566,1.0649397373199463,-0.0005923211574554443,0.0011032449547201395,-0.0011179597349837422,22:29:03.778
0.7417716979980469,-0.17606762051582336,-9.761829376220703,0.2099018096923828,0.09804177284240723,1.062978982925415,-0.002123415470123291,0.002758391434326768,-0.00158883654512465,22:29:03.788
0.7259194850921631,-0.17533476650714874,-9.786333084106445,0.21033096313476562,0.09998679161071777,1.0649259090423584,-0.002612546319141984,0.0037388876080513,-0.0023107975721359253,22:29:03.798
0.7484320402145386,-0.1628447324037552,-9.788097381591797,0.2104039192199707,0.09706425666809082,1.0644404888153076,-0.0017296524019911885,0.003450922667980194,-0.0014208258362486959,22:29:03.808
0.7370641231536865,-0.1597428172826767,-9.778691291809082,0.2122969627380371,0.09853076934814453,1.0654199123382568,-0.003162771463394165,0.0037604947574436665,-0.0005774200544692576,22:29:03.818
0.7400219440460205,-0.14640776813030243,-9.769791603088379,0.20898056030273438,0.0960853099822998,1.0639493465423584,-0.001700222841463983,0.002835504710674286,-0.0024031854700297117,22:29:03.828
0.7333457469940186,-0.16841433942317963,-9.774188995361328,0.2132272720336914,0.09999632835388184,1.065422773361206,-0.00452287495136261,0.0028299170080572367,-0.002108514541760087,22:29:03.838
0.7407213449478149,-0.1644333302974701,-9.776390075683594,0.2104341983795166,0.09609580039978027,1.062495231628418,-0.0017408282728865743,0.0035466626286506653,-0.0008933246717788279,22:29:03.848
0.7402681708335876,-0.17399287223815918,-9.78713607788086,0.21130108833312988,0.09949517250061035,1.0673620700836182,-0.0017661601305007935,0.0003298744559288025,0.00013019891048315912,22:29:03.858
0.7435922622680664,-0.17266041040420532,-9.766236305236816,0.2103579044342041,0.09901547431945801,1.063953161239624,-0.00035800039768218994,0.0003023073368240148,-0.0004202128038741648,22:29:03.868
0.7354345917701721,-0.17274898290634155,-9.779070854187012,0.21269822120666504,0.10194563865661621,1.0649337768554688,-0.003940985072404146,0.0019194558262825012,0.00010225921869277954,22:29:03.878
0.7502098679542542,-0.16380955278873444,-9.762713432312012,0.21038484573364258,0.09804368019104004,1.0629806518554688,-0.0007577240467071533,0.0029994177166372538,-0.0007193534402176738,22:29:03.888
0.7570393085479736,-0.1736200749874115,-9.767005920410156,0.2137296199798584,0.09901881217956543,1.0668842792510986,-0.002082809805870056,0.003820471465587616,-0.0017762185307219625,22:29:03.898
0.7517491579055786,-0.17982590198516846,-9.78600788116455,0.2094132900238037,0.09853386878967285,1.0610311031341553,-0.001098215696401894,0.0005198642611503601,-0.00014752151037100703,22:29:03.908
0.7386151552200317,-0.1877516806125641,-9.773419380187988,0.2142171859741211,0.09902548789978027,1.0654265880584717,-0.0022012742701917887,0.004067830741405487,-0.001130625605583191,22:29:03.918
0.7477486729621887,-0.16700057685375214,-9.79653549194336,0.20748519897460938,0.09803080558776855,1.0634565353393555,0.00036228442331776023,0.0032847749534994364,-0.0015210360288619995,22:29:03.928
0.7310121059417725,-0.16886939108371735,-9.769761085510254,0.2127366065979004,0.09998655319213867,1.0678534507751465,-0.003912672866135836,0.0026209286879748106,-0.0018626453820616007,22:29:03.938
0.738194465637207,-0.16173557937145233,-9.775343894958496,0.2118680477142334,0.09658551216125488,1.0634729862213135,-0.00040680172969587147,0.002765841782093048,-0.0004872680001426488,22:29:03.948
0.7429370880126953,-0.16549207270145416,-9.781254768371582,0.21032309532165527,0.09997892379760742,1.0673582553863525,-0.0014066697331145406,0.002616085112094879,-0.0007662922143936157,22:29:03.958
0.7244769334793091,-0.16163095831871033,-9.785394668579102,0.21091246604919434,0.09609270095825195,1.0639562606811523,-0.00444166362285614,0.005338155198842287,-0.001568719744682312,22:29:03.968
0.7360963821411133,-0.16951775550842285,-9.762181282043457,0.21463894844055176,0.10146260261535645,1.0659139156341553,-0.002632663119584322,0.0011207535862922668,-0.00042505571036599576,22:29:03.978
0.7323652505874634,-0.1578015238046646,-9.782724380493164,0.20946669578552246,0.09609031677246094,1.0629780292510986,-0.003107637632638216,0.0024771320167928934,0.0005764886736869812,22:29:03.988
0.7403324246406555,-0.16841155290603638,-9.768010139465332,0.21271896362304688,0.1009678840637207,1.0659070014953613,-0.00028721991111524403,0.003175996243953705,-0.0004205852746963501,22:29:03.998
0.7159664034843445,-0.16656248271465302,-9.778502464294434,0.2075209617614746,0.09656882286071777,1.0634572505950928,-0.0026702880859375,0.0011356546310707927,-0.00220276415348053,22:29:04.008
0.7350115776062012,-0.16137252748012543,-9.770007133483887,0.21369385719299316,0.10048079490661621,1.0668838024139404,-0.0019017606973648071,0.0025784592144191265,-0.000819563923869282,22:29:04.018
0.7349799275398254,-0.15938027203083038,-9.768562316894531,0.2098677158355713,0.09950566291809082,1.0624921321868896,0.0006308779702521861,0.0009020790457725525,-0.0014334918232634664,22:29:04.028
0.7541865110397339,-0.15764263272285461,-9.776780128479004,0.21374297142028809,0.09853291511535645,1.0663981437683105,-0.0011187047930434346,0.0029979273676872253,-0.0012677162885665894,22:29:04.038
0.7476117610931396,-0.1684570014476776,-9.761534690856934,0.20990586280822754,0.09754657745361328,1.0654115676879883,0.00013355165719985962,0.0009043142781592906,-0.0022277235984802246,22:29:04.048
0.7559835910797119,-0.15736785531044006,-9.786565780639648,0.2127680778503418,0.09902000427246094,1.0654213428497314,-0.0009618698386475444,0.003126076888293028,-0.002571940654888749,22:29:04.058
0.7423819303512573,-0.16635122895240784,-9.77772331237793,0.2089700698852539,0.09657430648803711,1.063462495803833,-0.00018216671014670283,0.003510899841785431,-0.0015307216672226787,22:29:04.068
0.7572894096374512,-0.16427452862262726,-9.777069091796875,0.2117753028869629,0.09998750686645508,1.0663905143737793,0.0009687616839073598,0.0005984677700325847,-0.0009428708581253886,22:29:04.078
0.7433775663375854,-0.1628832370042801,-9.778729438781738,0.2084665298461914,0.09755063056945801,1.0624873638153076,-0.0007979572983458638,0.0014448541915044188,-0.0013120472431182861,22:29:04.088
0.7433022260665894,-0.15633073449134827,-9.768856048583984,0.2117292881011963,0.10193872451782227,1.0659029483795166,-0.0006996095762588084,0.0008719042525626719,-0.0004719943390227854,22:29:04.098
0.7399726510047913,-0.17320702970027924,-9.768157005310059,0.2108457088470459,0.09902191162109375,1.062495470046997,-0.0007808209047652781,0.0028444454073905945,-0.000714510737452656,22:29:04.108
0.7405586242675781,-0.16993027925491333,-9.780706405639648,0.21518874168395996,0.09853529930114746,1.0673763751983643,-0.0016070903511717916,0.00010114163160324097,-0.001658126711845398,22:29:04.118
0.7399453520774841,-0.17340253293514252,-9.789382934570312,0.20941424369812012,0.09803509712219238,1.064436435699463,0.0015703962417319417,0.0021362677216529846,-0.0005457549705170095,22:29:04.128
0.7489123344421387,-0.1697530299425125,-9.783856391906738,0.2117633819580078,0.10047483444213867,1.0663902759552002,0.0010499731870368123,0.0008249657112173736,-0.0003203749656677246,22:29:04.138
0.7414687871932983,-0.17885653674602509,-9.791365623474121,0.21186399459838867,0.09708094596862793,1.0610406398773193,-0.0014457851648330688,0.0015409664483740926,-0.001691281795501709,22:29:04.148
0.7462891936302185,-0.18703874945640564,-9.776107788085938,0.21319150924682617,0.10145854949951172,1.0654220581054688,0.0019872563425451517,0.0005716457962989807,-0.0005587935447692871,22:29:04.158
0.7281179428100586,-0.18263030052185059,-9.792510986328125,0.20950722694396973,0.09463310241699219,1.0615191459655762,0.0003168359398841858,0.0025829297956079245,-0.001576542854309082,22:29:04.169
0.7238748669624329,-0.1763092279434204,-9.776886940002441,0.2122805118560791,0.0990133285522461,1.0668790340423584,-0.0031307341996580362,0.0029155986849218607,-0.0007133930921554565,22:29:04.179
0.721102237701416,-0.16880172491073608,-9.782438278198242,0.20947599411010742,0.096099853515625,1.0600593090057373,-0.003382936352863908,0.0043002888560295105,-0.0010311604710295796,22:29:04.189
0.7289333343505859,-0.17086341977119446,-9.783281326293945,0.21468186378479004,0.09950828552246094,1.0673744678497314,-0.001266971230506897,-0.0007919967756606638,-0.002517178887501359,22:29:04.199
0.7387535572052002,-0.1584084928035736,-9.774124145507812,0.21041655540466309,0.0970771312713623,1.0605487823486328,-0.002092123031616211,0.0012079254956915975,-0.0017389655113220215,22:29:04.209
0.7349143028259277,-0.16742435097694397,-9.787647247314453,0.21131348609924316,0.09950780868530273,1.0634701251983643,-0.0020299109164625406,0.002227537566795945,-0.0020481646060943604,22:29:04.219
0.7324670553207397,-0.1770607829093933,-9.771117210388184,0.21183562278747559,0.09805083274841309,1.0624995231628418,3.445893889875151e-05,0.0011546537280082703,-0.0021934511605650187,22:29:04.229
0.7392385601997375,-0.16961948573589325,-9.778268814086914,0.21471500396728516,0.09854316711425781,1.0644557476043701,-0.0038199126720428467,0.004692189861088991,-0.002342090243473649,22:29:04.239
0.7581644058227539,-0.1615750640630722,-9.790587425231934,0.21133732795715332,0.09853315353393555,1.0634703636169434,-0.002608448499813676,0.0021537765860557556,-0.001853332039900124,22:29:04.249
0.7457400560379028,-0.16319072246551514,-9.781538009643555,0.21467208862304688,0.10049724578857422,1.0629956722259521,-0.00195056211668998,0.003896840149536729,-0.0017017126083374023,22:29:04.259
0.7506681680679321,-0.16987773776054382,-9.767656326293945,0.21086621284484863,0.09804368019104004,1.0634686946868896,-0.0029973688069730997,0.0022893771529197693,-0.0024832787457853556,22:29:04.269
0.749201238155365,-0.16225126385688782,-9.78520679473877,0.2122342586517334,0.10096430778503418,1.066391944885254,-0.0014364720555022359,0.0024886801838874817,-0.0009331852197647095,22:29:04.279
0.7466491460800171,-0.1602843701839447,-9.777900695800781,0.21091556549072266,0.09609580039978027,1.0629832744598389,-0.0015437602996826172,0.002402626210823655,-0.0019334256649017334,22:29:04.289
0.758280873298645,-0.16110925376415253,-9.771469116210938,0.21176815032958984,0.1004796028137207,1.0649309158325195,-0.004248321056365967,0.005310960114002228,-0.0013425947399809957,22:29:04.299
0.7345263957977295,-0.16104985773563385,-9.781573295593262,0.2108457088470459,0.09902191162109375,1.062495470046997,-0.0019144266843795776,0.004623271990567446,-0.000729784369468689,22:29:04.309
0.7589607238769531,-0.16636890172958374,-9.778923988342285,0.2127070426940918,0.1014552116394043,1.0659067630767822,-0.0032119452953338623,0.0029252844396978617,-0.0017549843760207295,22:29:04.319
0.7369757890701294,-0.16524919867515564,-9.795156478881836,0.21140027046203613,0.0960993766784668,1.0624988079071045,-0.002055615186691284,0.0015223402297124267,-4.470349267648999e-06,22:29:04.329
0.7588257193565369,-0.16805367171764374,-9.77053451538086,0.21322274208068848,0.0999915599822998,1.0668821334838867,-0.0020816924516111612,0.003756769234314561,-0.0009022653102874756,22:29:04.339
0.7509800791740417,-0.1819140464067459,-9.774812698364258,0.21085858345031738,0.09803581237792969,1.0659010410308838,-0.0006586313247680664,0.0022279100958257914,-6.966292858123779e-05,22:29:04.349
0.7250894904136658,-0.1614287793636322,-9.786341667175293,0.21320199966430664,0.10096955299377441,1.065908670425415,-0.0003751367621589452,0.0020252540707588196,-0.0021263957023620605,22:29:04.359
0.7346643209457397,-0.17252576351165771,-9.772621154785156,0.2112882137298584,0.10048103332519531,1.0639562606811523,-0.0020194801036268473,0.002257712185382843,-0.0007063150987960398,22:29:04.369
0.7292428016662598,-0.16456371545791626,-9.769543647766113,0.2132108211517334,0.1004788875579834,1.0668818950653076,-0.002913177013397217,0.004309229552745819,-3.278255826444365e-05,22:29:04.379
0.7340817451477051,-0.17838701605796814,-9.782483100891113,0.2094118595123291,0.09853219985961914,1.0615174770355225,-0.0035654758103191853,0.004614331293851137,-0.002522766590118408,22:29:04.389
0.7441872954368591,-0.15974873304367065,-9.779597282409668,0.2128143310546875,0.09706878662109375,1.065908670425415,-0.001668185112066567,0.0018807125743478537,-0.00019073483417741954,22:29:04.399
0.7309814691543579,-0.15919403731822968,-9.767306327819824,0.21129131317138672,0.10048413276672363,1.0629832744598389,-0.0021073969546705484,0.003605895210057497,-0.0009275974589399993,22:29:04.409
0.7502358555793762,-0.15829496085643768,-9.782081604003906,0.2127697467803955,0.09902143478393555,1.0649349689483643,-0.0011920928955078125,0.003380514681339264,-0.0007536262855865061,22:29:04.419
0.7468821406364441,-0.16107513010501862,-9.781183242797852,0.2113645076751709,0.09756159782409668,1.0624980926513672,0.0006226823898032308,0.0019615518394857645,0.000560469925403595,22:29:04.429
0.7335712909698486,-0.15937040746212006,-9.768386840820312,0.21277856826782227,0.09853100776672363,1.0659079551696777,-0.00238344119861722,0.0010618941159918904,-0.0016406181966885924,22:29:04.439
0.7472955584526062,-0.16178396344184875,-9.76445484161377,0.20745110511779785,0.09949469566345215,1.06296968460083,-0.0024620445910841227,0.002393685281276703,-0.0006563962087966502,22:29:04.449
0.7347978353500366,-0.16908976435661316,-9.789257049560547,0.21227002143859863,0.0995020866394043,1.0663926601409912,-0.0016469508409500122,0.0030489633791148663,-0.0019431115360930562,22:29:04.459
0.7389379739761353,-0.18325138092041016,-9.783472061157227,0.20938587188720703,0.09900522232055664,1.0658953189849854,0.0004796310677193105,0.0003887340717483312,-0.0027358531951904297,22:29:04.469
0.7525511980056763,-0.16040189564228058,-9.772839546203613,0.21126842498779297,0.10096049308776855,1.0663883686065674,-8.419156802119687e-05,0.001294352114200592,0.0002784654498100281,22:29:04.479
0.7524163722991943,-0.1780242919921875,-9.778563499450684,0.2084648609161377,0.0975489616394043,1.0629737377166748,-0.002251937985420227,0.0023258852306753397,-0.001215934520587325,22:29:04.489
0.7305949926376343,-0.16166919469833374,-9.785601615905762,0.21323037147521973,0.09999942779541016,1.0644497871398926,-0.0008784236270003021,0.0022577124182134867,-0.0016234815120697021,22:29:04.499
0.7493385076522827,-0.17853593826293945,-9.78168773651123,0.20990490913391113,0.09804511070251465,1.0620059967041016,-0.0005573033704422414,0.001846812665462494,-0.0027824195567518473,22:29:04.509
0.7373594641685486,-0.16017372906208038,-9.76600170135498,0.21274995803833008,0.09950089454650879,1.0673673152923584,-0.0009749083546921611,0.003227405482903123,-0.0018898398848250508,22:29:04.519
0.73358154296875,-0.1677251160144806,-9.775792121887207,0.21038317680358887,0.09804201126098633,1.063467025756836,-0.0005807728157378733,0.002034194767475128,-0.0007092953310348094,22:29:04.529
0.7328932881355286,-0.1603640615940094,-9.784587860107422,0.21180081367492676,0.0990145206451416,1.065904140472412,0.0002922490530181676,0.002853758865967393,-0.0009529292583465576,22:29:04.539
0.7479843497276306,-0.17847658693790436,-9.77133560180664,0.21231842041015625,0.0980527400970459,1.0625014305114746,-0.00391155481338501,0.002613477176055312,-0.000377371849026531,22:29:04.549
0.7357299327850342,-0.1630651354789734,-9.769877433776855,0.2132422924041748,0.09951210021972656,1.0644500255584717,-0.0011943281861022115,0.002222321927547455,-0.0021319836378097534,22:29:04.560
0.7341588735580444,-0.16781339049339294,-9.769110679626465,0.20940876007080078,0.09852910041809082,1.062490463256836,-0.0006467105122283101,0.0028798363637179136,-0.0008024276467040181,22:29:04.570
0.7480101585388184,-0.16458261013031006,-9.781460762023926,0.21227002143859863,0.0995020866394043,1.0663926601409912,-0.0025570394936949015,0.000848807452712208,-0.0013239681720733643,22:29:04.580
0.7374908924102783,-0.16510048508644104,-9.787651062011719,0.20947694778442383,0.09560132026672363,1.063464641571045,-0.00023581090499646962,0.0029513619374483824,0.00011082740093115717,22:29:04.590
0.7464505434036255,-0.1580735743045807,-9.788362503051758,0.21273231506347656,0.10048198699951172,1.0654208660125732,-0.002010166645050049,0.001369230798445642,-0.0005137175903655589,22:29:04.600
0.7318366169929504,-0.15093295276165009,-9.76830768585205,0.21231985092163086,0.09805440902709961,1.0620148181915283,0.0008450821624137461,0.002166442573070526,-0.0012248755665495992,22:29:04.610
0.7449167966842651,-0.1630547195672989,-9.775721549987793,0.21268725395202637,0.10193467140197754,1.0683388710021973,-0.0014364720555022359,0.0020449983421713114,-0.002720579504966736,22:29:04.620
0.7476224303245544,-0.15418431162834167,-9.778279304504395,0.21181321144104004,0.09902739524841309,1.0620124340057373,-0.0028222796972841024,0.0021500512957572937,0.00010970980656566098,22:29:04.630
0.7425788640975952,-0.16224011778831482,-9.779502868652344,0.21515297889709473,0.09999728202819824,1.067375898361206,-0.004887207876890898,0.003167427610605955,-0.0003509222879074514,22:29:04.640
0.7499252557754517,-0.17050719261169434,-9.780807495117188,0.20893287658691406,0.09803485870361328,1.063948392868042,-0.0007890166016295552,8.624049223726615e-05,-0.0005479903193190694,22:29:04.650
0.749405562877655,-0.16894568502902985,-9.76855182647705,0.21224474906921387,0.10047531127929688,1.0668785572052002,-0.000679493008647114,0.00012572856212500483,-0.0011764466762542725,22:29:04.660
0.752595067024231,-0.1587822288274765,-9.76986312866211,0.209946870803833,0.09658932685852051,1.060060977935791,-0.0010818243026733398,0.001847557839937508,-0.0008180737495422363,22:29:04.670
0.7428942322731018,-0.1605743169784546,-9.778388977050781,0.21178889274597168,0.0995018482208252,1.065904140472412,-0.000640750105958432,0.0014876946806907654,-0.002076476812362671,22:29:04.680
0.7327489852905273,-0.16640543937683105,-9.782007217407227,0.20844817161560059,0.09803152084350586,1.0644328594207764,-0.0021863728761672974,0.003316812450066209,-0.001559033989906311,22:29:04.690
0.7443699836730957,-0.1703672856092453,-9.789233207702637,0.21127724647521973,0.10046982765197754,1.06736159324646,0.00017937272787094116,0.0010268762707710266,-0.0024497511330991983,22:29:04.700
0.7432478666305542,-0.18028894066810608,-9.770999908447266,0.20893430709838867,0.09803628921508789,1.0634617805480957,-0.002474338049069047,0.0031756237149238586,-0.0007815659628249705,22:29:04.710
0.7410980463027954,-0.16938987374305725,-9.76522159576416,0.2117929458618164,0.09900665283203125,1.0683364868164062,0.0013222919078543782,0.001051463419571519,-0.0014152380172163248,22:29:04.720
0.739963710308075,-0.16432055830955505,-9.786337852478027,0.21183395385742188,0.09804916381835938,1.062985897064209,-0.0037111337296664715,0.004029832314699888,-0.0005267559317871928,22:29:04.730
0.736004650592804,-0.1767522692680359,-9.773616790771484,0.21084809303283691,0.0985250473022461,1.0654144287109375,-0.0033762305974960327,0.0033838674426078796,-0.002046302193775773,22:29:04.740
0.7272194027900696,-0.16150875389575958,-9.773896217346191,0.2098841667175293,0.09902310371398926,1.061032772064209,-0.0017087908927351236,0.0038342552725225687,-0.0010717660188674927,22:29:04.750
0.7397449612617493,-0.16911055147647858,-9.769246101379395,0.21030545234680176,0.10096025466918945,1.0654118061065674,-0.0011596831027418375,0.002314337296411395,-0.002377480501309037,22:29:04.760
0.7266205549240112,-0.16779689490795135,-9.76593017578125,0.21086955070495605,0.09804701805114746,1.0624959468841553,-0.0002983957820106298,0.0024026259779930115,-0.0011980534764006734,22:29:04.770
0.7316734790802002,-0.17446719110012054,-9.776618003845215,0.2108166217803955,0.09949159622192383,1.0678465366363525,-0.0004786998324561864,0.0007370487437583506,-0.001148506999015808,22:29:04.780
0.7453062534332275,-0.16268377006053925,-9.784863471984863,0.21042537689208984,0.09658646583557129,1.0615220069885254,-0.0006336720543913543,0.0019298868719488382,0.0001685694296611473,22:29:04.790
0.7473944425582886,-0.1690133661031723,-9.765499114990234,0.21320199966430664,0.10096955299377441,1.065908670425415,0.0005105510354042053,0.0023098664823919535,-0.0004973263130523264,22:29:04.800
0.7437881231307983,-0.16172094643115997,-9.776224136352539,0.21040868759155273,0.09706902503967285,1.062981128692627,-0.003606826299801469,0.003789923619478941,-0.0028584154788404703,22:29:04.810
0.7569782733917236,-0.1756449043750763,-9.790754318237305,0.2122209072113037,0.10145020484924316,1.066878080368042,-0.002581254346296191,0.002137385541573167,-0.002580881118774414,22:29:04.820
0.7394613027572632,-0.17611351609230042,-9.767012596130371,0.21232867240905762,0.0975637435913086,1.062988042831421,-6.705523264827207e-05,0.00014100223779678345,-0.0023841860238462687,22:29:04.830
0.7572243213653564,-0.15855547785758972,-9.772587776184082,0.21224308013916016,0.10047364234924316,1.0673651695251465,-0.0032242387533187866,0.002912618452683091,-0.0015284867258742452,22:29:04.840
0.7392871975898743,-0.1510280817747116,-9.788498878479004,0.2103745937347412,0.09853291511535645,1.0624940395355225,-0.002580881118774414,0.0024693089071661234,-0.0010538846254348755,22:29:04.850
0.7572630643844604,-0.17974123358726501,-9.784428596496582,0.2117919921875,0.09950494766235352,1.0649313926696777,-0.0029753893613815308,0.000991858309134841,-0.0012442470761016011,22:29:04.860
0.7372484803199768,-0.1644962728023529,-9.77446460723877,0.20988821983337402,0.09852766990661621,1.0634651184082031,-0.0017773360013961792,0.0004945322289131582,-0.002394616138190031,22:29:04.870
0.7459319233894348,-0.17108848690986633,-9.769596099853516,0.2117633819580078,0.10047483444213867,1.0663902759552002,-0.002419203519821167,0.0035418199840933084,-0.001968443626537919,22:29:04.880
0.7385086417198181,-0.18224427103996277,-9.788481712341309,0.20943570137023926,0.09755730628967285,1.0615179538726807,-0.0007443130016326904,0.0012865291209891438,-0.00021010637283325195,22:29:04.890
0.743232011795044,-0.1651613712310791,-9.775686264038086,0.21275925636291504,0.09951043128967285,1.064448356628418,0.001904182368889451,0.0012213366571813822,-0.0022042549680918455,22:29:04.900
0.751882791519165,-0.16264042258262634,-9.777986526489258,0.21039986610412598,0.09755969047546387,1.0620079040527344,-0.0017274171113967896,0.001216866192407906,-0.00010095536708831787,22:29:04.910
0.7372962236404419,-0.16134516894817352,-9.776656150817871,0.21370410919189453,0.0999917984008789,1.0673706531524658,-0.0010028481483459473,0.0019805508200079203,-0.0010702760191634297,22:29:04.920
0.7450889945030212,-0.16236382722854614,-9.781249046325684,0.21135663986206055,0.09755349159240723,1.0649304389953613,-0.0001713633828330785,0.0014940280234441161,-0.00244602607563138,22:29:04.930
0.731951117515564,-0.17416861653327942,-9.778290748596191,0.21129655838012695,0.09949040412902832,1.0688214302062988,-0.003437325358390808,0.0025035813450813293,-0.0032287093345075846,22:29:04.940
0.735047459602356,-0.16407203674316406,-9.782979011535645,0.2093815803527832,0.09950041770935059,1.0634629726409912,-0.0032067301217466593,0.0028243288397789,-0.0005245209322310984,22:29:04.950
0.7470793128013611,-0.16747614741325378,-9.780080795288086,0.21375489234924316,0.09804534912109375,1.0663983821868896,-0.0018164516659453511,0.0026689842343330383,-0.0010862946510314941,22:29:04.960
0.7459313869476318,-0.17658483982086182,-9.774489402770996,0.21082592010498047,0.09950113296508789,1.0649278163909912,-0.0014785678358748555,0.004200078547000885,-0.0021856280509382486,22:29:04.970
0.7591676115989685,-0.1651199460029602,-9.772745132446289,0.21173954010009766,0.10144972801208496,1.066389799118042,0.0006785616278648376,0.0016978010535240173,-0.0012513251276686788,22:29:04.980
0.7379802465438843,-0.15062059462070465,-9.773674964904785,0.21138834953308105,0.09658694267272949,1.0624985694885254,-0.0032391399145126343,0.001825951156206429,-0.0023774802684783936,22:29:04.990
0.7446357011795044,-0.16338801383972168,-9.774992942810059,0.2112865447998047,0.1004793643951416,1.0644426345825195,-0.0032551586627960205,0.0026082617696374655,-0.0013276933459565043,22:29:05.000
0.7388426065444946,-0.1616215854883194,-9.775248527526855,0.21088695526123047,0.09706592559814453,1.0644421577453613,-0.0009562820196151733,0.002159364754334092,-0.0029981136322021484,22:29:05.010
0.7505348920822144,-0.16401343047618866,-9.779726028442383,0.2132434844970703,0.0990135669708252,1.0678553581237793,-0.003608688712120056,0.001767091453075409,-0.00309906923212111,22:29:05.021
0.7428089380264282,-0.16568513214588165,-9.770736694335938,0.20990490913391113,0.09804511070251465,1.0620059967041016,-0.0031538312323391438,0.004283152986317873,-0.0015642493963241577,22:29:05.031
0.7546155452728271,-0.16384357213974,-9.78346061706543,0.21082592010498047,0.09950113296508789,1.0649278163909912,-0.0025976449251174927,0.004294328857213259,2.2910537154530175e-05,22:29:05.041
0.7321253418922424,-0.1550070196390152,-9.78513240814209,0.20945954322814941,0.09658265113830566,1.0615184307098389,-0.0016037378227338195,0.0012839215341955423,-0.0006571412668563426,22:29:05.051
0.7320035099983215,-0.16124022006988525,-9.771980285644531,0.2117753028869629,0.09998750686645508,1.0663905143737793,0.0024391342885792255,0.0016177075449377298,-0.0011131168575957417,22:29:05.061
0.7238611578941345,-0.16059651970863342,-9.768413543701172,0.20850467681884766,0.09559154510498047,1.0654070377349854,-0.0011317433090880513,0.001987256109714508,-0.0006821005954407156,22:29:05.071
0.7526792287826538,-0.17996454238891602,-9.763526916503906,0.2127220630645752,0.10097098350524902,1.064934253692627,-0.0024270263966172934,0.0013345852494239807,-0.002537667751312256,22:29:05.081
0.7367124557495117,-0.1819387525320053,-9.769485473632812,0.21036267280578613,0.09902024269104004,1.0624938011169434,-0.0015638771001249552,0.0014981258427724242,-0.0008977950783446431,22:29:05.091
0.7455572485923767,-0.1913747787475586,-9.774918556213379,0.21271276473999023,0.10096144676208496,1.0678529739379883,3.1664974358136533e-06,0.0005530194030143321,-0.00215284526348114,22:29:05.101
0.7229443788528442,-0.18028290569782257,-9.791352272033691,0.20935940742492676,0.10047674179077148,1.0629761219024658,-0.004401430953294039,0.004116632044315338,-0.001024082419462502,22:29:05.111
0.7342787384986877,-0.16533562541007996,-9.782818794250488,0.21276187896728516,0.0990135669708252,1.0673673152923584,-0.0015135854482650757,0.0022808092180639505,-0.00035911801387555897,22:29:05.121
0.7396290302276611,-0.16250097751617432,-9.76858901977539,0.2094578742980957,0.09658122062683105,1.062004804611206,-0.0010441989870741963,0.0015718862414360046,-0.0014062972040846944,22:29:05.131
0.7476896047592163,-0.16490304470062256,-9.782577514648438,0.2122509479522705,0.10048151016235352,1.0649328231811523,-0.002562627661973238,0.002091937232762575,-0.0006392599898390472,22:29:05.141
0.7354671955108643,-0.1672046035528183,-9.771810531616211,0.20994234085083008,0.09658455848693848,1.0615203380584717,-0.0023528935853391886,0.0015793368220329285,-0.0001188367823488079,22:29:05.151
0.7404425144195557,-0.1592227965593338,-9.78958797454834,0.21321845054626465,0.10048675537109375,1.0644495487213135,0.0006923452601768076,0.00043567275861278176,-0.0017866494599729776,22:29:05.161
0.7471557855606079,-0.16165834665298462,-9.780109405517578,0.20890188217163086,0.0995018482208252,1.0624885559082031,0.001025758683681488,0.0006655231700278819,-5.103648436488584e-05,22:29:05.171
0.7585586905479431,-0.16519597172737122,-9.777214050292969,0.21227622032165527,0.09950852394104004,1.0644466876983643,-0.00130347884260118,0.0015685332473367453,-0.0010460616322234273,22:29:05.181
0.752091109752655,-0.15226620435714722,-9.74443531036377,0.2104179859161377,0.09707856178283691,1.0600624084472656,-0.001925230142660439,0.003526546061038971,-0.0011861323146149516,22:29:05.191
0.7353499531745911,-0.16933642327785492,-9.784791946411133,0.21274590492248535,0.09999608993530273,1.0649347305297852,-0.0026952477637678385,0.0032177194952964783,-0.0014726072549819946,22:29:05.201
0.7542421817779541,-0.15646860003471375,-9.7915678024292,0.20844578742980957,0.09852862358093262,1.061513900756836,-0.0018756837816908956,0.0008771196007728577,-0.001670420286245644,22:29:05.211
0.7181538343429565,-0.164761483669281,-9.75450325012207,0.21130895614624023,0.0995030403137207,1.064929723739624,-0.0026673078536987305,0.004765951074659824,-0.0007934870081953704,22:29:05.221
0.7348554134368896,-0.1528490036725998,-9.754180908203125,0.21039104461669922,0.09805011749267578,1.061034917831421,-0.000667572021484375,0.0017734247958287597,-0.0010281801223754883,22:29:05.231
0.745774507522583,-0.17389588057994843,-9.798643112182617,0.21177387237548828,0.09998607635498047,1.0668768882751465,0.001818873337469995,-0.0016581269446760416,-0.0016108157578855753,22:29:05.241
0.7328713536262512,-0.17049358785152435,-9.786487579345703,0.2104341983795166,0.09609580039978027,1.062495231628418,-0.0033527612686157227,0.004748814273625612,-0.0015221533831208944,22:29:05.251
0.7461014986038208,-0.16184858977794647,-9.770711898803711,0.21227478981018066,0.09950685501098633,1.0649333000183105,-0.004028156399726868,0.0045007094740867615,-0.0010237098904326558,22:29:05.261
0.74842369556427,-0.1660003513097763,-9.755473136901855,0.20843839645385742,0.09902071952819824,1.0600543022155762,-0.001133233425207436,0.0011106953024864197,-0.001763552543707192,22:29:05.271
0.7320475578308105,-0.15901222825050354,-9.808815002441406,0.21418142318725586,0.10048747062683105,1.0654261112213135,-0.0019554051104933023,0.0021124258637428284,-0.0016257166862487793,22:29:05.281
0.7393066883087158,-0.1841900646686554,-9.768016815185547,0.21042847633361816,0.09658980369567871,1.060549020767212,-0.002390519017353654,0.0036830082535743713,-0.0023055823985487223,22:29:05.291
0.7457517385482788,-0.17024973034858704,-9.75298023223877,0.21181273460388184,0.09852719306945801,1.0659043788909912,-0.0006485730991698802,0.0028638166841119528,-0.0017777085304260254,22:29:05.301
0.7355892062187195,-0.16278354823589325,-9.767234802246094,0.21083521842956543,0.09951090812683105,1.0620088577270508,-0.0024121254682540894,0.002866424387320876,-0.0015605238731950521,22:29:05.311
0.7372129559516907,-0.16752204298973083,-9.789709091186523,0.21321702003479004,0.10048508644104004,1.0649361610412598,0.0010812655091285706,0.0016761947190389037,-0.0009886921616271138,22:29:05.321
0.746909499168396,-0.1530170738697052,-9.778549194335938,0.2113478183746338,0.09804415702819824,1.0639572143554688,-0.0005360693321563303,0.0023389235138893127,-0.0009596349555067718,22:29:05.331
0.6978914141654968,-0.18540287017822266,-9.491617202758789,0.21473002433776855,0.09805870056152344,1.0634829998016357,-0.0019207597943022847,0.014017709530889988,-0.001687556505203247,22:29:05.341
0.8866837024688721,-0.13629433512687683,-10.17226505279541,0.21135401725769043,0.09805059432983398,1.0620112419128418,-0.0014003366231918335,-0.009818748570978642,-0.0018186867237091064,22:29:05.351
0.8300430774688721,-0.2440379410982132,-9.975646018981934,0.21127629280090332,0.10096859931945801,1.0639560222625732,-0.0026229771319776773,0.008868612349033356,-0.001671910285949707,22:29:05.361
0.6718409061431885,-0.15523070096969604,-9.375843048095703,0.21086478233337402,0.09804224967956543,1.063955307006836,0.0006286427960731089,0.00206921249628067,0.0013334675459191203,22:29:05.371
0.7582113146781921,-0.16885679960250854,-9.812545776367188,0.2123432159423828,0.09657955169677734,1.0659072399139404,-0.0028643759433180094,0.001457892474718392,-0.002652779221534729,22:29:05.381
0.7555700540542603,-0.17689262330532074,-9.822249412536621,0.20990800857543945,0.09804821014404297,1.0610332489013672,-0.0010941177606582642,0.004906021524220705,-0.0026129186153411865,22:29:05.391
0.7449766397476196,-0.1693609356880188,-9.823507308959961,0.2108290195465088,0.09950447082519531,1.0639548301696777,-0.0029429791029542685,0.0006409361958503723,-0.002755597233772278,22:29:05.401
0.7487304210662842,-0.17701566219329834,-9.738898277282715,0.21283721923828125,0.09659266471862793,1.0625038146972656,-0.0017065552528947592,0.0027345491107553244,-0.00144727504812181,22:29:05.411
0.7357791066169739,-0.1604304313659668,-9.754990577697754,0.2117784023284912,0.0999908447265625,1.0654175281524658,-0.003297999734058976,0.003284029895439744,-0.0018343329429626465,22:29:05.421
0.7497827410697937,-0.17128422856330872,-9.818269729614258,0.2103712558746338,0.09852957725524902,1.0634667873382568,-0.004708766471594572,0.003948621451854706,-0.0021561982575803995,22:29:05.431
0.7410293221473694,-0.15693418681621552,-9.77789306640625,0.21080517768859863,0.1004791259765625,1.0639543533325195,-0.0012956563150510192,0.002436154056340456,-0.0004503876552917063,22:29:05.441
0.7526680827140808,-0.16954496502876282,-9.781473159790039,0.20991277694702148,0.098052978515625,1.0595736503601074,-0.00043064355850219727,-0.0006392598734237254,-0.0007990747690200806,22:29:05.451
0.7402640581130981,-0.17901156842708588,-9.764850616455078,0.21511006355285645,0.10195159912109375,1.0659153461456299,-0.002120062941685319,0.003795512253418565,-0.0016994776669889688,22:29:05.461
0.7263646721839905,-0.1566901057958603,-9.772059440612793,0.2113955020904541,0.09609460830688477,1.0639581680297852,-0.001021101837977767,0.004655682016164064,-0.0016573816537857056,22:29:05.471
0.7250362038612366,-0.15784406661987305,-9.783380508422852,0.2113509178161621,0.09804725646972656,1.0629842281341553,-0.0013940039789304137,-0.0005114823579788208,-0.001050904393196106,22:29:05.481
0.7311310768127441,-0.17088906466960907,-9.773005485534668,0.21187901496887207,0.09659671783447266,1.060067892074585,-0.0024341049138456583,0.00445488840341568,-0.0013552607269957662,22:29:05.491
0.7359486222267151,-0.17605936527252197,-9.76115608215332,0.2131662368774414,0.1024315357208252,1.0659079551696777,-0.0025615098420530558,0.0012604520888999104,-0.00015534460544586182,22:29:05.501
0.7502719759941101,-0.17026937007904053,-9.787952423095703,0.21133184432983398,0.09902691841125488,1.0615243911743164,-0.0006135553121566772,-0.001300498959608376,-0.0003684312105178833,22:29:05.511
0.7459228038787842,-0.1704268902540207,-9.789628982543945,0.2127697467803955,0.09902143478393555,1.0649349689483643,-0.0037267806474119425,-6.854532693978399e-05,-0.00071972596924752,22:29:05.521
0.7427730560302734,-0.15991951525211334,-9.771421432495117,0.21135258674621582,0.09804892539978027,1.062497854232788,-0.0019963833037763834,0.0016087666153907776,-0.0009886921616271138,22:29:05.531
0.7496569156646729,-0.16307766735553741,-9.778316497802734,0.21179652214050293,0.09950971603393555,1.063471794128418,-0.00016018749738577753,0.0029405581299215555,-0.00117570161819458,22:29:05.541
0.7504292726516724,-0.1590111255645752,-9.782986640930176,0.2108767032623291,0.09755492210388184,1.063955545425415,-0.002543628215789795,0.0023512172047048807,-0.0020720064640045166,22:29:05.552
0.7380598187446594,-0.15465262532234192,-9.766690254211426,0.211334228515625,0.09853005409240723,1.0644433498382568,0.0030433761421591043,0.0011341646313667297,-0.0011801719665527344,22:29:05.562
0.7477487325668335,-0.17009337246418,-9.778984069824219,0.20941901206970215,0.09803986549377441,1.0629770755767822,-0.0021994116250425577,0.0019019471947103739,-0.0007808209047652781,22:29:05.572
0.7469193935394287,-0.1619587242603302,-9.776886940002441,0.2117934226989746,0.09950661659240723,1.0644447803497314,0.00011455268395366147,0.00205393903888762,-0.002167746424674988,22:29:05.582
0.7436768412590027,-0.17017406225204468,-9.770075798034668,0.2108290195465088,0.09950447082519531,1.0639548301696777,-0.003165752161294222,0.002601929707452655,-0.002117082942277193,22:29:05.592
0.7439513802528381,-0.15842190384864807,-9.7780122756958,0.21129703521728516,0.0999903678894043,1.064929485321045,0.0002624467306304723,0.0013282522559165955,-0.0020194798707962036,22:29:05.602
0.7549938559532166,-0.16794097423553467,-9.777328491210938,0.2118537425994873,0.09756994247436523,1.060553789138794,-0.0012893230887129903,0.002956204116344452,-0.0016044826479628682,22:29:05.612
0.7335594892501831,-0.16773991286754608,-9.778388977050781,0.21323609352111816,0.09950566291809082,1.0663959980010986,0.0008953734650276601,0.0018110499950125813,-0.00048726791283115745,22:29:05.622
0.7331912517547607,-0.15609583258628845,-9.766226768493652,0.21088910102844238,0.09756755828857422,1.0600638389587402,0.0006781890988349915,-0.00010281801951350644,-0.002909451723098755,22:29:05.632
0.7423223257064819,-0.16159775853157043,-9.773537635803223,0.2098536491394043,0.09949135780334473,1.0668702125549316,0.0010712072253227234,0.00014510007167700678,-0.0023782255593687296,22:29:05.642
0.7455445528030396,-0.1635427176952362,-9.779212951660156,0.20940542221069336,0.0985257625579834,1.0634632110595703,-0.0019967558328062296,0.005457736551761627,-0.00026002529193647206,22:29:05.652
0.7324690222740173,-0.16497166454792023,-9.776403427124023,0.21131205558776855,0.09950637817382812,1.0639567375183105,-0.0024847688619047403,0.0020315872970968485,-0.0021103769540786743,22:29:05.662
0.7448855042457581,-0.1777878701686859,-9.782709121704102,0.21229767799377441,0.09903073310852051,1.061527967453003,-0.0007580966339446604,0.0015480443835258484,-0.0021640213672071695,22:29:05.672
0.7348058819770813,-0.17271143198013306,-9.764301300048828,0.21132540702819824,0.09902048110961914,1.0634701251983643,-0.0026728962548077106,0.003936700988560915,-0.0016596171772107482,22:29:05.682
0.7370359897613525,-0.15862563252449036,-9.776971817016602,0.20991206169128418,0.09755277633666992,1.0634655952453613,-0.001389905926771462,0.001380033791065216,-0.0018093736143782735,22:29:05.692
0.7435727715492249,-0.17202886939048767,-9.774274826049805,0.2113208770751953,0.09901571273803711,1.064929723739624,-0.0019364060135558248,0.001917220768518746,-0.0012762844562530518,22:29:05.702
0.7436248660087585,-0.17111124098300934,-9.800881385803223,0.21135258674621582,0.09804892539978027,1.062497854232788,-0.0025857239961624146,0.00067744409898296,-0.001428648829460144,22:29:05.712
0.7367647290229797,-0.164240762591362,-9.771769523620605,0.21274995803833008,0.09950089454650879,1.0673673152923584,-0.0022474678698927164,0.003756023943424225,-9.98377799987793e-05,22:29:05.722
0.7464003562927246,-0.17535534501075745,-9.723892211914062,0.21038317680358887,0.09804201126098633,1.063467025756836,-0.002403929829597473,0.004287623334676027,-0.0008258968591690063,22:29:05.732
0.7603925466537476,-0.1687416136264801,-9.775662422180176,0.21322894096374512,0.09999775886535645,1.0649363994598389,-0.0032525514252483845,0.0015264376997947693,0.0011673198314383626,22:29:05.742
0.7430321574211121,-0.17485207319259644,-9.802425384521484,0.20987176895141602,0.09901022911071777,1.0649244785308838,-0.00197030627168715,0.00433754175901413,-0.002637878293171525,22:29:05.752
0.7446286082267761,-0.17533963918685913,-9.767250061035156,0.21271586418151855,0.10096478462219238,1.0668799877166748,-0.0012889503268525004,0.0038156285881996155,-0.0014156103134155273,22:29:05.762
0.7309120893478394,-0.16648602485656738,-9.764761924743652,0.2103443145751953,0.09950113296508789,1.0644395351409912,-0.004162266850471497,0.002469681901857257,-0.0008933247299864888,22:29:05.772
0.7487200498580933,-0.17372216284275055,-9.789260864257812,0.21129536628723145,0.09998893737792969,1.065415859222412,-0.0037536020390689373,0.0028008590452373028,-0.0012822450371459126,22:29:05.782
0.7493545413017273,-0.16985861957073212,-9.77043628692627,0.21038484573364258,0.09804368019104004,1.0629806518554688,-0.0016424807254225016,0.0026525931898504496,-0.0012192877475172281,22:29:05.792
0.7434162497520447,-0.1572171151638031,-9.780153274536133,0.21226286888122559,0.09999418258666992,1.0649330615997314,-0.0011950732441619039,0.002314336597919464,-0.002193078398704529,22:29:05.802
0.7338529229164124,-0.17179109156131744,-9.767505645751953,0.21085762977600098,0.09853458404541016,1.0624957084655762,-0.0030588360968977213,0.0027680769562721252,-0.00252909935079515,22:29:05.812
0.7389058470726013,-0.17198140919208527,-9.777069091796875,0.212738037109375,0.09998822212219238,1.0673670768737793,-0.0008102506981231272,0.002550147706642747,-1.6391277313232422e-05,22:29:05.822
0.7488744258880615,-0.15823344886302948,-9.770150184631348,0.21085596084594727,0.09853291511535645,1.0629820823669434,-0.001896917587146163,0.003484822576865554,-0.0005863606929779053,22:29:05.832
0.7497045993804932,-0.14714039862155914,-9.782634735107422,0.21273088455200195,0.10048031806945801,1.0659072399139404,0.0006886199116706848,0.0024816023651510477,-0.0033706428948789835,22:29:05.842
0.7495413422584534,-0.1602880209684372,-9.773600578308105,0.21084976196289062,0.0985264778137207,1.0649280548095703,-0.0036787239369004965,0.003876723349094391,-0.0022377821151167154,22:29:05.852
0.7349839210510254,-0.15474653244018555,-9.759284973144531,0.21034693717956543,0.09900426864624023,1.0673584938049316,-0.001025572419166565,0.00331047922372818,-0.0024709852878004313,22:29:05.862
0.7488358020782471,-0.16445960104465485,-9.77295970916748,0.21185612678527832,0.09707283973693848,1.0634727478027344,-0.0012863429728895426,0.002201461000367999,-0.0025212769396603107,22:29:05.872
0.7264687418937683,-0.17003929615020752,-9.777857780456543,0.21516799926757812,0.09951305389404297,1.0664031505584717,0.0021202489733695984,0.0008540228591300547,-0.0007577241049148142,22:29:05.882
0.7407819032669067,-0.1595761924982071,-9.792206764221191,0.2123556137084961,0.09659242630004883,1.0620155334472656,0.0015093013644218445,-0.0016387553187087178,-0.0018950554076582193,22:29:05.892
0.7434268593788147,-0.16830655932426453,-9.769509315490723,0.21370887756347656,0.09999656677246094,1.065911054611206,-0.001297518378123641,0.002059154212474823,-0.002066046232357621,22:29:05.902
0.7470447421073914,-0.16219556331634521,-9.771747589111328,0.20992565155029297,0.09706711769104004,1.0629794597625732,-0.0025827439967542887,0.002849660813808441,-0.0021990390960127115,22:29:05.912
0.7365388870239258,-0.16896957159042358,-9.794965744018555,0.21130108833312988,0.09949517250061035,1.0673620700836182,-0.0014532358618453145,0.0014936551451683044,-0.0005889683961868286,22:29:05.922
0.7443605065345764,-0.1685536503791809,-9.750616073608398,0.21143031120300293,0.09513115882873535,1.0605530738830566,-0.0015079976292327046,0.0035950918681919575,-0.0005789101705886424,22:29:05.932
0.7303659915924072,-0.15569448471069336,-9.77773380279541,0.2131946086883545,0.10146164894104004,1.0644490718841553,-0.0026538970414549112,0.0026093798223882914,-0.0010341405868530273,22:29:05.942
0.7384318709373474,-0.168696328997612,-9.775384902954102,0.21040606498718262,0.09756588935852051,1.0600621700286865,-0.0020183625165373087,0.001767836743965745,-0.0010900200577452779,22:29:05.952
0.72737056016922,-0.1631447970867157,-9.783591270446777,0.21032047271728516,0.10047578811645508,1.064439058303833,-0.0039305537939071655,0.0031081961933523417,-0.0019073487492278218,22:29:05.962
0.7284402847290039,-0.16945777833461761,-9.777292251586914,0.20990753173828125,0.09754800796508789,1.064925193786621,-8.866192365530878e-05,0.00046994545846246183,-0.0010240825358778238,22:29:05.972
0.7321344614028931,-0.16783182322978973,-9.772176742553711,0.21179771423339844,0.09901142120361328,1.0668771266937256,-0.0030376019421964884,0.002998300129547715,-0.0021923333406448364,22:29:05.982
0.7281559705734253,-0.17781393229961395,-9.781763076782227,0.21184110641479492,0.09755706787109375,1.0644454956054688,-0.000470131664769724,0.0005504116415977478,-0.0008679928141646087,22:29:05.992
0.7387613654136658,-0.18375980854034424,-9.784199714660645,0.21321702003479004,0.10048508644104004,1.0649361610412598,-0.00267624924890697,0.0035965819843113422,-0.0018466266337782145,22:29:06.002
0.7421599626541138,-0.17320318520069122,-9.786542892456055,0.20893597602844238,0.0980379581451416,1.0629754066467285,-0.0020373614970594645,0.0017410144209861755,-0.0007022172794677317,22:29:06.012
0.7350105047225952,-0.17054621875286102,-9.766018867492676,0.21178007125854492,0.09999227523803711,1.0649311542510986,-0.0013999642105773091,0.0027341770473867655,-0.0017475336790084839,22:29:06.022
0.7319960594177246,-0.15970705449581146,-9.778099060058594,0.21043968200683594,0.09560203552246094,1.064441204071045,-0.0031575567554682493,0.0016434118151664734,-0.0022806229535490274,22:29:06.032
0.747793436050415,-0.1787237823009491,-9.814212799072266,0.21565580368041992,0.09951972961425781,1.0649454593658447,-0.003607198130339384,0.004207156132906675,-0.002176314825192094,22:29:06.042
0.7407990097999573,-0.1710151731967926,-9.74997329711914,0.2118833065032959,0.09610128402709961,1.0625004768371582,0.0008841977105475962,0.0021403655409812927,-0.0015113503905013204,22:29:06.052
0.7359931468963623,-0.17051026225090027,-9.754912376403809,0.2117919921875,0.09950494766235352,1.0649313926696777,0.0001860782940639183,0.0017656016862019897,-0.0009495766134932637,22:29:06.062
0.7425280213356018,-0.16936540603637695,-9.792145729064941,0.21089577674865723,0.09657549858093262,1.065415382385254,-0.0013921411009505391,0.0032866373658180237,-0.0018689782591536641,22:29:06.072
0.7507885098457336,-0.16587330400943756,-9.778657913208008,0.2127397060394287,0.0999898910522461,1.066880464553833,-0.002317130798473954,0.003193877637386322,-5.029141902923584e-05,22:29:06.082
0.7503693699836731,-0.1549246907234192,-9.760406494140625,0.20939207077026367,0.09901165962219238,1.0639495849609375,-0.0014122576685622334,0.003036297857761383,-0.0014487655134871602,22:29:06.093
0.7466689944267273,-0.16240514814853668,-9.772710800170898,0.21224522590637207,0.10097551345825195,1.0629866123199463,-0.0030238181352615356,0.003169663716107607,-0.001084432122297585,22:29:06.103
0.7407383322715759,-0.16821792721748352,-9.77394962310791,0.20993757247924805,0.09657979011535645,1.0629796981811523,-0.00019781292940024287,0.0011408701539039612,-0.0019904228392988443,22:29:06.113
0.7343736290931702,-0.17440558969974518,-9.796417236328125,0.21279621124267578,0.0975496768951416,1.067854404449463,0.0006189570412971079,0.0013409184757620096,-0.001436471939086914,22:29:06.123
0.7344081997871399,-0.16699573397636414,-9.774751663208008,0.2113819122314453,0.09658050537109375,1.0644443035125732,0.0007698312983848155,0.002786703407764435,-0.001940876361913979,22:29:06.133
0.7334703803062439,-0.16306374967098236,-9.769871711730957,0.21326160430908203,0.09853267669677734,1.0659096240997314,-0.002005324000492692,0.004107691813260317,-0.0020910054445266724,22:29:06.143
0.730999767780304,-0.1767202913761139,-9.80636978149414,0.20897340774536133,0.09657764434814453,1.0624897480010986,-0.0006746500148437917,0.0027431175112724304,-0.0009443611488677561,22:29:06.153
0.7390670776367188,-0.1739788055419922,-9.797829627990723,0.21228361129760742,0.09901642799377441,1.065906047821045,-0.002852082485333085,0.003061257302761078,-0.00186823308467865,22:29:06.163
0.7497382164001465,-0.16714583337306976,-9.758811950683594,0.2084798812866211,0.09706497192382812,1.0620009899139404,-0.002582371234893799,0.0005913897766731679,-0.0018279999494552612,22:29:06.173
0.7369502186775208,-0.18516063690185547,-9.78738784790039,0.21228361129760742,0.09901642799377441,1.065906047821045,-0.0019207597943022847,0.0026075171772390604,-0.002961978316307068,22:29:06.183
0.7361392378807068,-0.16465753316879272,-9.790759086608887,0.21179652214050293,0.09950971603393555,1.063471794128418,-0.0015519562875851989,0.002090074121952057,-0.0012610108824446797,22:29:06.193
0.7441302537918091,-0.17044585943222046,-9.764345169067383,0.21132802963256836,0.09852361679077148,1.0663893222808838,-0.0029522927943617105,0.0044884150847792625,-0.002856925129890442,22:29:06.203
0.739728569984436,-0.16801701486110687,-9.76608657836914,0.21184277534484863,0.09755873680114746,1.0639591217041016,-0.002971664536744356,0.0027751552406698465,-0.001395493745803833,22:29:06.213
0.7319021224975586,-0.161316379904747,-9.78873348236084,0.21030092239379883,0.10095548629760742,1.066871166229248,-0.0015851109055802226,0.0011848286958411336,-0.00128000951372087,22:29:06.223
0.7495855093002319,-0.154518261551857,-9.780976295471191,0.2108457088470459,0.09902191162109375,1.062495470046997,0.0018132850527763367,-2.4959446818684228e-05,8.773058652877808e-05,22:29:06.233
0.7247695326805115,-0.16094380617141724,-9.770668029785156,0.21082115173339844,0.09949636459350586,1.0663871765136719,-0.0007007272797636688,0.00014286491204984486,-0.002978742588311434,22:29:06.243
0.734407901763916,-0.14824341237545013,-9.78648853302002,0.21282362937927246,0.09707832336425781,1.0629899501800537,-0.001099333050660789,0.002437643241137266,-0.0006753950729034841,22:29:06.253
0.7331323623657227,-0.17472325265407562,-9.77434253692627,0.21223735809326172,0.1009676456451416,1.0654189586639404,0.001551397261209786,0.001633353647775948,-0.001418217783793807,22:29:06.263
0.7373097538948059,-0.17648927867412567,-9.776049613952637,0.21132230758666992,0.09901738166809082,1.0644431114196777,-0.003165379399433732,0.0015715137124061584,-0.0008828938589431345,22:29:06.273
0.7295371294021606,-0.1642800122499466,-9.763411521911621,0.20983290672302246,0.10046911239624023,1.06589674949646,-0.0016871842090040445,0.002330355579033494,-0.0030647970270365477,22:29:06.283
0.7407165765762329,-0.1633792370557785,-9.781363487243652,0.21334505081176758,0.09512090682983398,1.065911054611206,-0.002245977520942688,0.0024190174881368876,0.00027883797883987427,22:29:06.293
0.7489567399024963,-0.15974462032318115,-9.799602508544922,0.21421408653259277,0.09902215003967285,1.0663995742797852,-0.0043679033406078815,0.0030143188778311014,-0.001981481909751892,22:29:06.303
0.7429197430610657,-0.173428475856781,-9.760461807250977,0.21040868759155273,0.09706902503967285,1.062981128692627,-0.003253669012337923,0.003402494126930833,-0.0018056484404951334,22:29:06.313
0.7357773184776306,-0.15184205770492554,-9.764060020446777,0.2141711711883545,0.10097646713256836,1.0649394989013672,-0.006001815665513277,0.004003383219242096,-0.001469254493713379,22:29:06.323
0.7377869486808777,-0.15761712193489075,-9.778543472290039,0.20890021324157715,0.09950017929077148,1.0629749298095703,0.00032018875936046243,0.0020721929613500834,-0.0003948808298446238,22:29:06.333
0.7517234683036804,-0.16652843356132507,-9.786030769348145,0.21036982536315918,0.09852814674377441,1.0639533996582031,1.3224781469034497e-05,0.0035298990551382303,-0.0010967254638671875,22:29:06.343
0.7431101202964783,-0.1461326777935028,-9.78424072265625,0.21136903762817383,0.09756636619567871,1.0610387325286865,-0.0002849847369361669,0.0021642069332301617,-0.0026665630284696817,22:29:06.353
0.7306060791015625,-0.16413380205631256,-9.78685188293457,0.21087980270385742,0.09755802154541016,1.0629825592041016,-0.0018678609048947692,0.0027453526854515076,-0.0010211020708084106,22:29:06.363
0.747185230255127,-0.17445127665996552,-9.767672538757324,0.2108767032623291,0.09755492210388184,1.063955545425415,-0.002990290755406022,0.004311837255954742,-0.0007420778856612742,22:29:06.373
0.7189962863922119,-0.15794627368450165,-9.791316032409668,0.2122955322265625,0.09852910041809082,1.065906286239624,-0.0012647360563278198,0.0025140121579170227,-0.0010248274775221944,22:29:06.383
0.7435088157653809,-0.1755053848028183,-9.767193794250488,0.2103896141052246,0.09804844856262207,1.061521291732788,-0.0033345073461532593,0.002180598909035325,-0.0011555850505828857,22:29:06.393
0.7394515872001648,-0.17033350467681885,-9.756134033203125,0.2127687931060791,0.09951996803283691,1.0615296363830566,-0.004978477954864502,0.0037321823183447123,-0.0010412187548354268,22:29:06.403
0.7334941029548645,-0.168278306722641,-9.778849601745605,0.2099168300628662,0.09755778312683105,1.0620062351226807,-0.0006813555955886841,0.0028567390982061625,-0.003580749034881592,22:29:06.413
0.7331504225730896,-0.16489094495773315,-9.760353088378906,0.21571683883666992,0.09708452224731445,1.0644598007202148,-0.00038221487193368375,0.0013018028112128377,0.0003000721335411072,22:29:06.423
0.745530903339386,-0.17396368086338043,-9.79566764831543,0.21230316162109375,0.09853696823120117,1.0634739398956299,-0.0019077211618423462,0.002509169513359666,-0.00030919909477233887,22:29:06.433
0.7422454357147217,-0.1594807654619217,-9.807291030883789,0.21276497840881348,0.09901666641235352,1.066394329071045,-0.0016018749447539449,0.001706741750240326,-0.00017024576663970947,22:29:06.443
0.7455054521560669,-0.17338965833187103,-9.759073257446289,0.2112865447998047,0.1004793643951416,1.0644426345825195,-0.004209951031953096,0.0020032748579978943,-0.000891462026629597,22:29:06.453
0.7389045357704163,-0.1599552184343338,-9.73171329498291,0.21373677253723145,0.0985267162322998,1.0683438777923584,0.0019213187042623758,0.0024570152163505554,-0.001886114594526589,22:29:06.463
0.7274513840675354,-0.16106881201267242,-9.761253356933594,0.20889544486999512,0.09949541091918945,1.064434289932251,-0.004661455750465393,0.0030340629164129496,-0.0014714894350618124,22:29:06.473
0.7185225486755371,-0.1530715525150299,-9.79752254486084,0.21227622032165527,0.09950852394104004,1.0644466876983643,-0.002631917828693986,0.004316680133342743,-0.0004928559064865112,22:29:06.483
0.7311336994171143,-0.16304758191108704,-9.793583869934082,0.21229767799377441,0.09903073310852051,1.061527967453003,0.0019947062246501446,0.0013655050424858928,-0.0015728173311799765,22:29:06.493
0.7506049871444702,-0.16083453595638275,-9.773808479309082,0.2122492790222168,0.1004800796508789,1.0654191970825195,-0.0020481646060943604,0.004391930997371674,-0.002270192140713334,22:29:06.503
0.7427194118499756,-0.1542997658252716,-9.760398864746094,0.21138668060302734,0.09658527374267578,1.0629849433898926,-0.0016257170354947448,0.0025643035769462585,-0.0025477262679487467,22:29:06.513
0.7406837344169617,-0.16149167716503143,-9.788712501525879,0.21038579940795898,0.09754514694213867,1.0663862228393555,-0.0014781953068450093,0.003161095082759857,-0.000735744833946228,22:29:06.523
0.7178447246551514,-0.16643817722797394,-9.786386489868164,0.2108607292175293,0.09853768348693848,1.0615227222442627,-0.001472234958782792,0.001772307208739221,-0.000944361207075417,22:29:06.533
0.7423359155654907,-0.16756761074066162,-9.764870643615723,0.21281886100769043,0.09707355499267578,1.0644493103027344,-0.001864507794380188,0.000916607677936554,-0.0010211021872237325,22:29:06.543
0.7361012697219849,-0.18031556904315948,-9.766683578491211,0.21091866493225098,0.0960991382598877,1.0620102882385254,-0.0006660819635726511,0.00128280371427536,-0.0009320676908828318,22:29:06.553
0.7429685592651367,-0.1735861599445343,-9.793692588806152,0.21324801445007324,0.09901833534240723,1.0663959980010986,0.0017391518922522664,0.0020252540707588196,-0.0005241483449935913,22:29:06.563
0.7437124848365784,-0.17653290927410126,-9.80984115600586,0.2108767032623291,0.09755492210388184,1.063955545425415,-0.006177649367600679,0.005210749804973602,-0.0016190112801268697,22:29:06.573
0.7417107224464417,-0.15426009893417358,-9.753865242004395,0.21373987197875977,0.09852981567382812,1.067371129989624,0.001804344356060028,0.004399381577968597,-0.0015895817195996642,22:29:06.583
0.7481469511985779,-0.16309332847595215,-9.746699333190918,0.21036267280578613,0.09902024269104004,1.0624938011169434,-0.0011790543794631958,0.0020643698517233133,-0.001753494143486023,22:29:06.593
0.7386010885238647,-0.16432081162929535,-9.782561302185059,0.21080923080444336,0.09998369216918945,1.0663869380950928,-0.006299838423728943,0.003486313158646226,-0.0017337502213194966,22:29:06.603
0.7428000569343567,-0.1599414050579071,-9.773792266845703,0.21231842041015625,0.0980527400970459,1.0625014305114746,0.0019511209102347493,-0.0006642192602157593,-0.0002227723743999377,22:29:06.613
0.7466889023780823,-0.17012280225753784,-9.773481369018555,0.21324968338012695,0.09902000427246094,1.0659093856811523,-0.0016938894987106323,0.0019082799553871155,-0.0010821969481185079,22:29:06.624
0.7468869686126709,-0.1599573940038681,-9.778965950012207,0.20988821983337402,0.09852766990661621,1.0634651184082031,-0.0010058284970000386,0.003998912870883942,-0.0008750707493163645,22:29:06.634
0.7553286552429199,-0.16357170045375824,-9.780981063842773,0.21325063705444336,0.09852147102355957,1.069314956665039,-0.0028215348720550537,0.0019794327672570944,-0.002306699985638261,22:29:06.644
0.7378557920455933,-0.160674586892128,-9.793593406677246,0.20986604690551758,0.09950399398803711,1.0629785060882568,-0.00011734664440155029,0.0031257050577551126,-0.001090019941329956,22:29:06.654
0.7432039976119995,-0.16643649339675903,-9.777496337890625,0.21323466300964355,0.09950423240661621,1.0668823719024658,-0.004294887650758028,0.0019786881748586893,-0.0017136335372924805,22:29:06.664
0.7371390461921692,-0.15144279599189758,-9.751683235168457,0.21136999130249023,0.09706783294677734,1.0644440650939941,-0.001155957579612732,0.0010976569028571248,-0.0017799437046051025,22:29:06.674
0.7441962957382202,-0.1646076738834381,-9.778736114501953,0.2147057056427002,0.09853363037109375,1.0673747062683105,-0.0014711171388626099,0.0038007276598364115,-0.00022314490342978388,22:29:06.684
0.739684522151947,-0.15803980827331543,-9.822997093200684,0.21233892440795898,0.09707474708557129,1.0634746551513672,-0.0033292919397354126,0.002847798401489854,-0.001978128682821989,22:29:06.694
0.7339601516723633,-0.18163591623306274,-9.770520210266113,0.21421265602111816,0.09902071952819824,1.0668859481811523,-0.003863498568534851,0.0024726614356040955,-0.0018015505047515035,22:29:06.704
0.7308930158615112,-0.1566481739282608,-9.761714935302734,0.21132707595825195,0.09902215003967285,1.062983751296997,-0.003150105709210038,0.002308376133441925,-0.00261515355668962,22:29:06.714
0.7396461367607117,-0.15662363171577454,-9.754032135009766,0.21178722381591797,0.09950017929077148,1.0663907527923584,-0.00045970091014169157,0.0016340988222509623,-0.0011213123798370361,22:29:06.724
0.7434374690055847,-0.16451764106750488,-9.77193832397461,0.20986604690551758,0.09950399398803711,1.0629785060882568,-0.0007946044206619263,0.0007452443824149668,0.0004084781394340098,22:29:06.734
0.7426120042800903,-0.16575054824352264,-9.787508964538574,0.21227002143859863,0.0995020866394043,1.0663926601409912,0.0006048007635399699,-0.0005319713382050395,-0.0012841074494645,22:29:06.744
0.7554922103881836,-0.15341725945472717,-9.784860610961914,0.2118070125579834,0.09902095794677734,1.0639584064483643,-0.0012911857338622212,0.003960169851779938,-0.002098828786984086,22:29:06.754
0.739926815032959,-0.15112003684043884,-9.762507438659668,0.2146778106689453,0.10000348091125488,1.0649418830871582,-0.0011723488569259644,0.0026198106352239847,-0.0008549541817046702,22:29:06.764
0.7354335188865662,-0.15973882377147675,-9.758743286132812,0.20994234085083008,0.09658455848693848,1.0615203380584717,-0.00018924474716186523,0.002784095471724868,-0.0025741751305758953,22:29:06.774
0.7378337979316711,-0.16455748677253723,-9.791946411132812,0.21282052993774414,0.09707522392272949,1.0639629364013672,-0.0015135854482650757,-0.00044144695857539773,-0.0007823110208846629,22:29:06.784
0.7492045760154724,-0.1579289585351944,-9.768460273742676,0.21281170845031738,0.0975656509399414,1.0629897117614746,0.00037942081689834595,0.000283308356301859,-0.00010766090417746454,22:29:06.794
0.7486917972564697,-0.16485697031021118,-9.773518562316895,0.2118396759033203,0.09755539894104004,1.064932107925415,-0.0010475516319274902,0.002337806159630418,-0.0011265279026702046,22:29:06.804
0.7527382969856262,-0.15185795724391937,-9.775336265563965,0.21038007736206055,0.09803891181945801,1.0644400119781494,-0.001851096865721047,0.0032866373658180237,-0.0024579467717558146,22:29:06.814
0.7270470261573792,-0.16338799893856049,-9.795104026794434,0.21370887756347656,0.09999656677246094,1.065911054611206,-0.0020433219615370035,0.0023080038372427225,-0.0012021511793136597,22:29:06.824
0.7443704605102539,-0.1638440489768982,-9.770252227783203,0.21083521842956543,0.09951090812683105,1.0620088577270508,-0.00011175871622981504,0.001432560384273529,-0.0005595386610366404,22:29:06.834
0.7419226765632629,-0.1586942821741104,-9.776530265808105,0.2127842903137207,0.0980370044708252,1.0678541660308838,-0.001547858351841569,0.0006889924989081919,-0.002515316242352128,22:29:06.844
0.7487232685089111,-0.16783836483955383,-9.782549858093262,0.21231675148010254,0.09805107116699219,1.0629878044128418,-0.002851337194442749,0.0010831282706931233,-0.00047534710029140115,22:29:06.854
0.7421188950538635,-0.16070298850536346,-9.775358200073242,0.21229243278503418,0.0985260009765625,1.0668792724609375,-0.0018700960790738463,0.00289510958828032,-0.0014785677194595337,22:29:06.864
0.7399502396583557,-0.15405793488025665,-9.774057388305664,0.21090197563171387,0.09658169746398926,1.063469409942627,-0.0011421741219237447,0.0028969720005989075,-0.002124160761013627,22:29:06.874
0.7479888200759888,-0.15417888760566711,-9.776701927185059,0.21370148658752441,0.10048866271972656,1.0644514560699463,-0.0005163252935744822,0.0006446614861488342,-0.0004839151515625417,22:29:06.884
0.746295690536499,-0.15720674395561218,-9.779654502868652,0.20990347862243652,0.09804344177246094,1.0624926090240479,-0.0012051314115524292,0.002020783955231309,-0.0018477439880371094,22:29:06.894
0.7484259009361267,-0.16843187808990479,-9.789090156555176,0.21128201484680176,0.10047459602355957,1.0659019947052002,-0.00012330712343100458,0.00107269745785743,-0.0014301389455795288,22:29:06.904
0.7465665340423584,-0.1693507730960846,-9.782393455505371,0.21184897422790527,0.0975651741027832,1.0620131492614746,0.00019986183906439692,0.0014407560229301453,-0.0015482307644560933,22:29:06.914
0.7390097975730896,-0.16955973207950592,-9.767046928405762,0.21329164505004883,0.0975642204284668,1.0639643669128418,-0.004459544084966183,0.004740618634968996,-0.002036616438999772,22:29:06.924
0.7314059734344482,-0.18335995078086853,-9.777909278869629,0.21181797981262207,0.09903216361999512,1.0605530738830566,-0.0034362077713012695,0.0056738038547337055,-0.001576542854309082,22:29:06.934
0.7434969544410706,-0.17422157526016235,-9.776920318603516,0.21127009391784668,0.10096216201782227,1.065901756286621,-0.002622604602947831,0.003839470213279128,-0.0003602355718612671,22:29:06.944
0.7477687001228333,-0.16683365404605865,-9.770109176635742,0.21136689186096191,0.09706473350524902,1.0654170513153076,-0.0013001264305785298,0.002376548945903778,-0.0029046086128801107,22:29:06.954
